[{"success":true,"timeout":false,"failed_images":[],"failed_audio":[],"failed_video":[],"trial_type":"preload","trial_index":0,"time_elapsed":225,"internal_node_id":"0.0-0.0"},{"rt":1031,"stimulus":"<p style='font-size: 40px'>Welcome to the experiment.</p><p style='font-size: 30px'>Press any key to begin.</p>","response":" ","trial_type":"html-keyboard-response","trial_index":1,"time_elapsed":1256,"internal_node_id":"0.0-1.0"},{"rt":1926,"stimulus":"\n    <p>In this experiment, 4 images will appear on the screen. 3 out of 4 images were generated with a certain rule while one image (the odd one out) does not respect this rule.</p>\n    <p>Select the odd one out by clicking on the image.</p>\n    <p>Following your choice, you will be asked to rate how confident you were about your choice on a scale from 1 to 100. Then, you will receive feedback on the trial.</p>\n    <p>For each rule you will perform 21 trials. You will be notified at each rule change.</p>\n    <p>The following 3 trials will allow you to get familiar with the odd-one-out task. The experiment starts after this practice session.</p>\n    \n    <p>Press any button to continue</p>\n    <div style='margin: auto; position: relative; width: 400px; height: 400px;'>\n        <div style='position: absolute; top: 0;     left: 0; '><img src='../static/img/square.png'></img></div>\n        <div style='position: absolute; top: 0;     right: 0;'><img src='../static/img/square.png'></img></div>\n        <div style='position: absolute; bottom: 0;  left: 0; '><img src='../static/img/square.png'></img></div>\n        <div style='position: absolute; bottom: 0;  right: 0;'><img src='../static/img/square.png'></img></div>\n    </div>\n","response":" ","trial_type":"html-keyboard-response","trial_index":2,"time_elapsed":3187,"internal_node_id":"0.0-2.0"},{"rt":null,"trial_type":"image-click","trial_index":3,"time_elapsed":5867,"internal_node_id":"0.0-3.0-0.0"},{"rt":2504,"response":3,"all_choices":["../static/human_exp_images/practice_img/00_1.png","../static/human_exp_images/practice_img/00_2.png","../static/human_exp_images/practice_img/00_0.png","../static/human_exp_images/practice_img/00_3.png"],"task":"response","correct_response":3,"shuffled_array":[1,2,0,3],"catch_trial":false,"trial_type":"image-click","trial_index":4,"time_elapsed":8372,"internal_node_id":"0.0-3.0-1.0","mouse_tracking_data":[{"x":980,"y":545,"t":1,"event":"mousemove"},{"x":980,"y":534,"t":17,"event":"mousemove"},{"x":980,"y":516,"t":33,"event":"mousemove"},{"x":980,"y":506,"t":50,"event":"mousemove"},{"x":980,"y":494,"t":67,"event":"mousemove"},{"x":980,"y":489,"t":83,"event":"mousemove"},{"x":980,"y":484,"t":101,"event":"mousemove"},{"x":980,"y":481,"t":117,"event":"mousemove"},{"x":980,"y":477,"t":134,"event":"mousemove"},{"x":980,"y":475,"t":150,"event":"mousemove"},{"x":980,"y":474,"t":167,"event":"mousemove"},{"x":980,"y":472,"t":184,"event":"mousemove"},{"x":980,"y":470,"t":201,"event":"mousemove"},{"x":980,"y":469,"t":217,"event":"mousemove"},{"x":980,"y":467,"t":244,"event":"mousemove"},{"x":980,"y":465,"t":390,"event":"mousemove"},{"x":980,"y":464,"t":1251,"event":"mousemove"},{"x":979,"y":464,"t":1255,"event":"mousemove"},{"x":977,"y":464,"t":1265,"event":"mousemove"},{"x":979,"y":464,"t":1423,"event":"mousemove"},{"x":982,"y":467,"t":1428,"event":"mousemove"},{"x":985,"y":472,"t":1445,"event":"mousemove"},{"x":989,"y":479,"t":1462,"event":"mousemove"},{"x":992,"y":484,"t":1478,"event":"mousemove"},{"x":994,"y":486,"t":1494,"event":"mousemove"},{"x":994,"y":488,"t":1511,"event":"mousemove"},{"x":995,"y":488,"t":1820,"event":"mousemove"},{"x":997,"y":489,"t":1829,"event":"mousemove"},{"x":999,"y":491,"t":1838,"event":"mousemove"},{"x":1004,"y":493,"t":1855,"event":"mousemove"},{"x":1016,"y":501,"t":1873,"event":"mousemove"},{"x":1034,"y":516,"t":1888,"event":"mousemove"},{"x":1056,"y":534,"t":1905,"event":"mousemove"},{"x":1077,"y":553,"t":1922,"event":"mousemove"},{"x":1100,"y":574,"t":1939,"event":"mousemove"},{"x":1112,"y":586,"t":1956,"event":"mousemove"},{"x":1123,"y":596,"t":1971,"event":"mousemove"},{"x":1135,"y":607,"t":1989,"event":"mousemove"},{"x":1146,"y":615,"t":2006,"event":"mousemove"},{"x":1164,"y":634,"t":2022,"event":"mousemove"},{"x":1181,"y":653,"t":2038,"event":"mousemove"},{"x":1194,"y":666,"t":2055,"event":"mousemove"},{"x":1199,"y":673,"t":2072,"event":"mousemove"},{"x":1203,"y":676,"t":2089,"event":"mousemove"},{"x":1203,"y":678,"t":2106,"event":"mousemove"}],"mouse_tracking_targets":{},"correct":true},{"rt":2481,"stimulus":"<p>How confident are you about your choice ?</p>","slider_start":50,"response":76,"trial_type":"html-slider-response","trial_index":5,"time_elapsed":10857,"internal_node_id":"0.0-3.0-2.0"},{"rt":null,"stimulus":"\n        <div id='jspsych-image' style='position: relative; width: min(80vw, 80vh); height: min(80vw, 80vh);'>\n                \n                <div style='position: absolute; top: 40%; left: 30%; bottom: 40%; right: 30%;'><h1 style='font-size: 60px; color: green;'>Correct!</h1></div>\n                \n                <div class='jspsych-image' id='jspsych-image-0' data-choice='0' style='top: 0;     left: 0;'><img style=\"width: 100%; height: 100%;\" src='../static/human_exp_images/practice_img/00_1.png' class=''></img></div>\n                <div class='jspsych-image' id='jspsych-image-1' data-choice='1' style='top: 0;     right: 0;'><img style=\"width: 100%; height: 100%;\" src='../static/human_exp_images/practice_img/00_2.png' class=''></img></div>\n                <div class='jspsych-image' id='jspsych-image-2' data-choice='2' style='bottom: 0;  left: 0;'><img style=\"width: 100%; height: 100%;\" src='../static/human_exp_images/practice_img/00_0.png' class=''></img></div>\n                <div class='jspsych-image' id='jspsych-image-3' data-choice='3' style='bottom: 0;  right: 0;'><img style=\"width: 100%; height: 100%;\" src='../static/human_exp_images/practice_img/00_3.png' class='correct-choice'></img></div>\n\n        </div>","response":null,"trial_type":"html-keyboard-response","trial_index":6,"time_elapsed":12363,"internal_node_id":"0.0-3.0-3.0"},{"rt":null,"trial_type":"image-click","trial_index":7,"time_elapsed":12964,"internal_node_id":"0.0-3.0-0.1"},{"rt":1226,"response":1,"all_choices":["../static/human_exp_images/practice_img/01_0.png","../static/human_exp_images/practice_img/01_3.png","../static/human_exp_images/practice_img/01_2.png","../static/human_exp_images/practice_img/01_1.png"],"task":"response","correct_response":1,"shuffled_array":[0,3,2,1],"catch_trial":false,"trial_type":"image-click","trial_index":8,"time_elapsed":14191,"internal_node_id":"0.0-3.0-1.1","mouse_tracking_data":[{"x":958,"y":542,"t":1,"event":"mousemove"},{"x":958,"y":534,"t":16,"event":"mousemove"},{"x":958,"y":525,"t":33,"event":"mousemove"},{"x":958,"y":518,"t":50,"event":"mousemove"},{"x":958,"y":513,"t":67,"event":"mousemove"},{"x":958,"y":504,"t":83,"event":"mousemove"},{"x":958,"y":501,"t":101,"event":"mousemove"},{"x":958,"y":498,"t":116,"event":"mousemove"},{"x":958,"y":496,"t":197,"event":"mousemove"},{"x":958,"y":494,"t":214,"event":"mousemove"},{"x":958,"y":493,"t":217,"event":"mousemove"},{"x":958,"y":491,"t":234,"event":"mousemove"},{"x":958,"y":487,"t":250,"event":"mousemove"},{"x":958,"y":486,"t":267,"event":"mousemove"},{"x":958,"y":484,"t":284,"event":"mousemove"},{"x":958,"y":482,"t":299,"event":"mousemove"},{"x":958,"y":481,"t":361,"event":"mousemove"},{"x":958,"y":479,"t":534,"event":"mousemove"},{"x":958,"y":477,"t":839,"event":"mousemove"},{"x":958,"y":474,"t":846,"event":"mousemove"},{"x":958,"y":471,"t":851,"event":"mousemove"},{"x":958,"y":465,"t":856,"event":"mousemove"},{"x":958,"y":464,"t":857,"event":"mousemove"},{"x":960,"y":457,"t":865,"event":"mousemove"},{"x":962,"y":453,"t":866,"event":"mousemove"},{"x":969,"y":445,"t":874,"event":"mousemove"},{"x":973,"y":439,"t":876,"event":"mousemove"},{"x":982,"y":425,"t":883,"event":"mousemove"},{"x":987,"y":418,"t":887,"event":"mousemove"},{"x":999,"y":403,"t":892,"event":"mousemove"},{"x":1004,"y":396,"t":897,"event":"mousemove"},{"x":1014,"y":379,"t":901,"event":"mousemove"},{"x":1023,"y":364,"t":902,"event":"mousemove"},{"x":1042,"y":336,"t":910,"event":"mousemove"},{"x":1047,"y":328,"t":913,"event":"mousemove"},{"x":1059,"y":310,"t":920,"event":"mousemove"},{"x":1065,"y":301,"t":923,"event":"mousemove"},{"x":1078,"y":282,"t":929,"event":"mousemove"},{"x":1085,"y":275,"t":933,"event":"mousemove"},{"x":1108,"y":248,"t":947,"event":"mousemove"},{"x":1150,"y":200,"t":964,"event":"mousemove"},{"x":1172,"y":176,"t":981,"event":"mousemove"},{"x":1182,"y":166,"t":998,"event":"mousemove"},{"x":1189,"y":161,"t":1014,"event":"mousemove"},{"x":1194,"y":160,"t":1031,"event":"mousemove"},{"x":1198,"y":156,"t":1048,"event":"mousemove"},{"x":1203,"y":155,"t":1064,"event":"mousemove"},{"x":1208,"y":153,"t":1081,"event":"mousemove"},{"x":1210,"y":153,"t":1101,"event":"mousemove"}],"mouse_tracking_targets":{},"correct":true},{"rt":3166,"stimulus":"<p>How confident are you about your choice ?</p>","slider_start":50,"response":82,"trial_type":"html-slider-response","trial_index":9,"time_elapsed":17356,"internal_node_id":"0.0-3.0-2.1"},{"rt":null,"stimulus":"\n        <div id='jspsych-image' style='position: relative; width: min(80vw, 80vh); height: min(80vw, 80vh);'>\n                \n                <div style='position: absolute; top: 40%; left: 30%; bottom: 40%; right: 30%;'><h1 style='font-size: 60px; color: green;'>Correct!</h1></div>\n                \n                <div class='jspsych-image' id='jspsych-image-0' data-choice='0' style='top: 0;     left: 0;'><img style=\"width: 100%; height: 100%;\" src='../static/human_exp_images/practice_img/01_0.png' class=''></img></div>\n                <div class='jspsych-image' id='jspsych-image-1' data-choice='1' style='top: 0;     right: 0;'><img style=\"width: 100%; height: 100%;\" src='../static/human_exp_images/practice_img/01_3.png' class='correct-choice'></img></div>\n                <div class='jspsych-image' id='jspsych-image-2' data-choice='2' style='bottom: 0;  left: 0;'><img style=\"width: 100%; height: 100%;\" src='../static/human_exp_images/practice_img/01_2.png' class=''></img></div>\n                <div class='jspsych-image' id='jspsych-image-3' data-choice='3' style='bottom: 0;  right: 0;'><img style=\"width: 100%; height: 100%;\" src='../static/human_exp_images/practice_img/01_1.png' class=''></img></div>\n\n        </div>","response":null,"trial_type":"html-keyboard-response","trial_index":10,"time_elapsed":18860,"internal_node_id":"0.0-3.0-3.1"},{"rt":null,"trial_type":"image-click","trial_index":11,"time_elapsed":19786,"internal_node_id":"0.0-3.0-0.2"},{"rt":1769,"response":3,"all_choices":["../static/human_exp_images/practice_img/02_1.png","../static/human_exp_images/practice_img/02_0.png","../static/human_exp_images/practice_img/02_2.png","../static/human_exp_images/practice_img/02_3.png"],"task":"response","correct_response":3,"shuffled_array":[1,0,2,3],"catch_trial":false,"trial_type":"image-click","trial_index":12,"time_elapsed":21557,"internal_node_id":"0.0-3.0-1.2","mouse_tracking_data":[{"x":967,"y":540,"t":1,"event":"mousemove"},{"x":967,"y":530,"t":13,"event":"mousemove"},{"x":967,"y":521,"t":30,"event":"mousemove"},{"x":967,"y":511,"t":46,"event":"mousemove"},{"x":967,"y":506,"t":63,"event":"mousemove"},{"x":967,"y":501,"t":80,"event":"mousemove"},{"x":967,"y":498,"t":96,"event":"mousemove"},{"x":967,"y":496,"t":113,"event":"mousemove"},{"x":967,"y":494,"t":129,"event":"mousemove"},{"x":967,"y":492,"t":147,"event":"mousemove"},{"x":967,"y":491,"t":171,"event":"mousemove"},{"x":967,"y":489,"t":190,"event":"mousemove"},{"x":967,"y":487,"t":382,"event":"mousemove"},{"x":967,"y":486,"t":545,"event":"mousemove"},{"x":967,"y":484,"t":655,"event":"mousemove"},{"x":967,"y":482,"t":910,"event":"mousemove"},{"x":967,"y":480,"t":919,"event":"mousemove"},{"x":967,"y":479,"t":922,"event":"mousemove"},{"x":967,"y":475,"t":927,"event":"mousemove"},{"x":967,"y":472,"t":938,"event":"mousemove"},{"x":967,"y":470,"t":943,"event":"mousemove"},{"x":967,"y":469,"t":947,"event":"mousemove"},{"x":967,"y":467,"t":955,"event":"mousemove"},{"x":967,"y":465,"t":957,"event":"mousemove"},{"x":967,"y":463,"t":964,"event":"mousemove"},{"x":967,"y":462,"t":978,"event":"mousemove"},{"x":967,"y":460,"t":993,"event":"mousemove"},{"x":967,"y":458,"t":1011,"event":"mousemove"},{"x":969,"y":458,"t":1130,"event":"mousemove"},{"x":977,"y":458,"t":1145,"event":"mousemove"},{"x":993,"y":460,"t":1163,"event":"mousemove"},{"x":1007,"y":472,"t":1179,"event":"mousemove"},{"x":1019,"y":485,"t":1196,"event":"mousemove"},{"x":1029,"y":497,"t":1213,"event":"mousemove"},{"x":1038,"y":509,"t":1229,"event":"mousemove"},{"x":1045,"y":517,"t":1245,"event":"mousemove"},{"x":1057,"y":529,"t":1263,"event":"mousemove"},{"x":1074,"y":541,"t":1278,"event":"mousemove"},{"x":1084,"y":548,"t":1296,"event":"mousemove"},{"x":1098,"y":553,"t":1313,"event":"mousemove"},{"x":1105,"y":558,"t":1329,"event":"mousemove"},{"x":1110,"y":562,"t":1346,"event":"mousemove"},{"x":1117,"y":567,"t":1363,"event":"mousemove"},{"x":1120,"y":572,"t":1379,"event":"mousemove"},{"x":1122,"y":574,"t":1395,"event":"mousemove"},{"x":1123,"y":575,"t":1412,"event":"mousemove"},{"x":1123,"y":577,"t":1438,"event":"mousemove"},{"x":1123,"y":579,"t":1447,"event":"mousemove"},{"x":1125,"y":580,"t":1462,"event":"mousemove"},{"x":1127,"y":586,"t":1479,"event":"mousemove"},{"x":1129,"y":592,"t":1496,"event":"mousemove"},{"x":1129,"y":596,"t":1513,"event":"mousemove"},{"x":1129,"y":599,"t":1529,"event":"mousemove"},{"x":1129,"y":603,"t":1547,"event":"mousemove"},{"x":1130,"y":604,"t":1563,"event":"mousemove"},{"x":1130,"y":606,"t":1579,"event":"mousemove"},{"x":1130,"y":608,"t":1596,"event":"mousemove"}],"mouse_tracking_targets":{},"correct":true},{"rt":2899,"stimulus":"<p>How confident are you about your choice ?</p>","slider_start":50,"response":50,"trial_type":"html-slider-response","trial_index":13,"time_elapsed":24459,"internal_node_id":"0.0-3.0-2.2"},{"rt":null,"stimulus":"\n        <div id='jspsych-image' style='position: relative; width: min(80vw, 80vh); height: min(80vw, 80vh);'>\n                \n                <div style='position: absolute; top: 40%; left: 30%; bottom: 40%; right: 30%;'><h1 style='font-size: 60px; color: green;'>Correct!</h1></div>\n                \n                <div class='jspsych-image' id='jspsych-image-0' data-choice='0' style='top: 0;     left: 0;'><img style=\"width: 100%; height: 100%;\" src='../static/human_exp_images/practice_img/02_1.png' class=''></img></div>\n                <div class='jspsych-image' id='jspsych-image-1' data-choice='1' style='top: 0;     right: 0;'><img style=\"width: 100%; height: 100%;\" src='../static/human_exp_images/practice_img/02_0.png' class=''></img></div>\n                <div class='jspsych-image' id='jspsych-image-2' data-choice='2' style='bottom: 0;  left: 0;'><img style=\"width: 100%; height: 100%;\" src='../static/human_exp_images/practice_img/02_2.png' class=''></img></div>\n                <div class='jspsych-image' id='jspsych-image-3' data-choice='3' style='bottom: 0;  right: 0;'><img style=\"width: 100%; height: 100%;\" src='../static/human_exp_images/practice_img/02_3.png' class='correct-choice'></img></div>\n\n        </div>","response":null,"trial_type":"html-keyboard-response","trial_index":14,"time_elapsed":25962,"internal_node_id":"0.0-3.0-3.2"},{"rt":6350,"stimulus":"<p style='font-size: 40px'>The practice session is over. The experiment begin now!</p> \n                <p>Please take pauses on only at the \"new rule\" pages.</p> \n                <p>Press any key to begin.</p>","response":" ","trial_type":"html-keyboard-response","trial_index":15,"time_elapsed":32313,"internal_node_id":"0.0-4.0"},{"rt":1286,"stimulus":"<h1 style='font-size: 60px'>New Rule!</h1> <p>Press any key to begin.</p>","response":" ","trial_type":"html-keyboard-response","trial_index":16,"time_elapsed":33600,"internal_node_id":"0.0-5.0"},{"rt":null,"trial_type":"image-click","trial_index":17,"time_elapsed":34402,"internal_node_id":"0.0-6.0-0.0"},{"rt":1229,"response":1,"all_choices":["../static/human_exp_images/task_size/00_1.png","../static/human_exp_images/task_size/00_3.png","../static/human_exp_images/task_size/00_2.png","../static/human_exp_images/task_size/00_0.png"],"task":"response","correct_response":1,"shuffled_array":[1,3,2,0],"catch_trial":false,"trial_type":"image-click","trial_index":18,"time_elapsed":35632,"internal_node_id":"0.0-6.0-1.0","mouse_tracking_data":[{"x":961,"y":544,"t":1,"event":"mousemove"},{"x":961,"y":536,"t":16,"event":"mousemove"},{"x":961,"y":531,"t":32,"event":"mousemove"},{"x":961,"y":526,"t":49,"event":"mousemove"},{"x":961,"y":520,"t":65,"event":"mousemove"},{"x":961,"y":515,"t":83,"event":"mousemove"},{"x":961,"y":512,"t":100,"event":"mousemove"},{"x":961,"y":509,"t":116,"event":"mousemove"},{"x":961,"y":503,"t":133,"event":"mousemove"},{"x":961,"y":498,"t":149,"event":"mousemove"},{"x":961,"y":495,"t":166,"event":"mousemove"},{"x":961,"y":491,"t":183,"event":"mousemove"},{"x":961,"y":490,"t":200,"event":"mousemove"},{"x":961,"y":486,"t":215,"event":"mousemove"},{"x":961,"y":485,"t":233,"event":"mousemove"},{"x":961,"y":483,"t":272,"event":"mousemove"},{"x":961,"y":481,"t":398,"event":"mousemove"},{"x":961,"y":479,"t":631,"event":"mousemove"},{"x":961,"y":478,"t":665,"event":"mousemove"},{"x":961,"y":476,"t":676,"event":"mousemove"},{"x":961,"y":473,"t":693,"event":"mousemove"},{"x":961,"y":469,"t":710,"event":"mousemove"},{"x":961,"y":468,"t":726,"event":"mousemove"},{"x":961,"y":466,"t":748,"event":"mousemove"},{"x":961,"y":464,"t":768,"event":"mousemove"},{"x":961,"y":462,"t":786,"event":"mousemove"},{"x":961,"y":461,"t":794,"event":"mousemove"},{"x":961,"y":457,"t":803,"event":"mousemove"},{"x":961,"y":447,"t":819,"event":"mousemove"},{"x":961,"y":442,"t":836,"event":"mousemove"},{"x":969,"y":429,"t":852,"event":"mousemove"},{"x":979,"y":416,"t":869,"event":"mousemove"},{"x":996,"y":398,"t":885,"event":"mousemove"},{"x":1014,"y":378,"t":902,"event":"mousemove"},{"x":1038,"y":351,"t":920,"event":"mousemove"},{"x":1053,"y":328,"t":936,"event":"mousemove"},{"x":1070,"y":311,"t":954,"event":"mousemove"},{"x":1109,"y":273,"t":998,"event":"mousemove"},{"x":1114,"y":272,"t":1008,"event":"mousemove"},{"x":1123,"y":265,"t":1015,"event":"mousemove"},{"x":1135,"y":258,"t":1032,"event":"mousemove"},{"x":1143,"y":253,"t":1049,"event":"mousemove"},{"x":1149,"y":248,"t":1066,"event":"mousemove"},{"x":1152,"y":246,"t":1083,"event":"mousemove"},{"x":1152,"y":244,"t":1100,"event":"mousemove"}],"mouse_tracking_targets":{},"correct":true},{"rt":1731,"stimulus":"<p>How confident are you about your choice ?</p>","slider_start":50,"response":81,"trial_type":"html-slider-response","trial_index":19,"time_elapsed":37364,"internal_node_id":"0.0-6.0-2.0"},{"rt":null,"stimulus":"\n        <div id='jspsych-image' style='position: relative; width: min(80vw, 80vh); height: min(80vw, 80vh);'>\n                \n                <div style='position: absolute; top: 40%; left: 30%; bottom: 40%; right: 30%;'><h1 style='font-size: 60px; color: green;'>Correct!</h1></div>\n                \n                <div class='jspsych-image' id='jspsych-image-0' data-choice='0' style='top: 0;     left: 0;'><img style=\"width: 100%; height: 100%;\" src='../static/human_exp_images/task_size/00_1.png' class=''></img></div>\n                <div class='jspsych-image' id='jspsych-image-1' data-choice='1' style='top: 0;     right: 0;'><img style=\"width: 100%; height: 100%;\" src='../static/human_exp_images/task_size/00_3.png' class='correct-choice'></img></div>\n                <div class='jspsych-image' id='jspsych-image-2' data-choice='2' style='bottom: 0;  left: 0;'><img style=\"width: 100%; height: 100%;\" src='../static/human_exp_images/task_size/00_2.png' class=''></img></div>\n                <div class='jspsych-image' id='jspsych-image-3' data-choice='3' style='bottom: 0;  right: 0;'><img style=\"width: 100%; height: 100%;\" src='../static/human_exp_images/task_size/00_0.png' class=''></img></div>\n\n        </div>","response":null,"trial_type":"html-keyboard-response","trial_index":20,"time_elapsed":38865,"internal_node_id":"0.0-6.0-3.0"},{"rt":null,"trial_type":"image-click","trial_index":21,"time_elapsed":40199,"internal_node_id":"0.0-6.0-0.1"},{"rt":1031,"response":3,"all_choices":["../static/human_exp_images/task_size/01_2.png","../static/human_exp_images/task_size/01_1.png","../static/human_exp_images/task_size/01_0.png","../static/human_exp_images/task_size/01_3.png"],"task":"response","correct_response":3,"shuffled_array":[2,1,0,3],"catch_trial":false,"trial_type":"image-click","trial_index":22,"time_elapsed":41231,"internal_node_id":"0.0-6.0-1.1","mouse_tracking_data":[{"x":970,"y":546,"t":1,"event":"mousemove"},{"x":970,"y":541,"t":15,"event":"mousemove"},{"x":970,"y":536,"t":32,"event":"mousemove"},{"x":970,"y":531,"t":50,"event":"mousemove"},{"x":970,"y":527,"t":67,"event":"mousemove"},{"x":970,"y":520,"t":83,"event":"mousemove"},{"x":970,"y":514,"t":99,"event":"mousemove"},{"x":970,"y":508,"t":117,"event":"mousemove"},{"x":970,"y":505,"t":133,"event":"mousemove"},{"x":970,"y":502,"t":150,"event":"mousemove"},{"x":970,"y":500,"t":166,"event":"mousemove"},{"x":970,"y":498,"t":183,"event":"mousemove"},{"x":970,"y":497,"t":269,"event":"mousemove"},{"x":970,"y":495,"t":342,"event":"mousemove"},{"x":970,"y":493,"t":351,"event":"mousemove"},{"x":970,"y":491,"t":354,"event":"mousemove"},{"x":970,"y":490,"t":360,"event":"mousemove"},{"x":970,"y":488,"t":370,"event":"mousemove"},{"x":970,"y":486,"t":379,"event":"mousemove"},{"x":970,"y":485,"t":390,"event":"mousemove"},{"x":970,"y":483,"t":399,"event":"mousemove"},{"x":970,"y":481,"t":405,"event":"mousemove"},{"x":970,"y":479,"t":414,"event":"mousemove"},{"x":970,"y":478,"t":423,"event":"mousemove"},{"x":970,"y":476,"t":435,"event":"mousemove"},{"x":970,"y":474,"t":446,"event":"mousemove"},{"x":970,"y":473,"t":459,"event":"mousemove"},{"x":970,"y":471,"t":487,"event":"mousemove"},{"x":970,"y":469,"t":505,"event":"mousemove"},{"x":970,"y":467,"t":543,"event":"mousemove"},{"x":972,"y":467,"t":578,"event":"mousemove"},{"x":974,"y":467,"t":582,"event":"mousemove"},{"x":977,"y":467,"t":587,"event":"mousemove"},{"x":984,"y":467,"t":604,"event":"mousemove"},{"x":998,"y":467,"t":621,"event":"mousemove"},{"x":1018,"y":467,"t":637,"event":"mousemove"},{"x":1047,"y":467,"t":654,"event":"mousemove"},{"x":1086,"y":487,"t":670,"event":"mousemove"},{"x":1120,"y":511,"t":688,"event":"mousemove"},{"x":1142,"y":530,"t":704,"event":"mousemove"},{"x":1174,"y":559,"t":720,"event":"mousemove"},{"x":1199,"y":582,"t":738,"event":"mousemove"},{"x":1209,"y":594,"t":754,"event":"mousemove"},{"x":1224,"y":607,"t":771,"event":"mousemove"},{"x":1228,"y":610,"t":787,"event":"mousemove"},{"x":1229,"y":612,"t":804,"event":"mousemove"},{"x":1229,"y":614,"t":820,"event":"mousemove"}],"mouse_tracking_targets":{},"correct":true},{"rt":926,"stimulus":"<p>How confident are you about your choice ?</p>","slider_start":50,"response":50,"trial_type":"html-slider-response","trial_index":23,"time_elapsed":42158,"internal_node_id":"0.0-6.0-2.1"},{"rt":null,"stimulus":"\n        <div id='jspsych-image' style='position: relative; width: min(80vw, 80vh); height: min(80vw, 80vh);'>\n                \n                <div style='position: absolute; top: 40%; left: 30%; bottom: 40%; right: 30%;'><h1 style='font-size: 60px; color: green;'>Correct!</h1></div>\n                \n                <div class='jspsych-image' id='jspsych-image-0' data-choice='0' style='top: 0;     left: 0;'><img style=\"width: 100%; height: 100%;\" src='../static/human_exp_images/task_size/01_2.png' class=''></img></div>\n                <div class='jspsych-image' id='jspsych-image-1' data-choice='1' style='top: 0;     right: 0;'><img style=\"width: 100%; height: 100%;\" src='../static/human_exp_images/task_size/01_1.png' class=''></img></div>\n                <div class='jspsych-image' id='jspsych-image-2' data-choice='2' style='bottom: 0;  left: 0;'><img style=\"width: 100%; height: 100%;\" src='../static/human_exp_images/task_size/01_0.png' class=''></img></div>\n                <div class='jspsych-image' id='jspsych-image-3' data-choice='3' style='bottom: 0;  right: 0;'><img style=\"width: 100%; height: 100%;\" src='../static/human_exp_images/task_size/01_3.png' class='correct-choice'></img></div>\n\n        </div>","response":null,"trial_type":"html-keyboard-response","trial_index":24,"time_elapsed":43660,"internal_node_id":"0.0-6.0-3.1"},{"rt":null,"trial_type":"image-click","trial_index":25,"time_elapsed":44311,"internal_node_id":"0.0-6.0-0.2"},{"rt":1094,"response":3,"all_choices":["../static/human_exp_images/task_size/02_0.png","../static/human_exp_images/task_size/02_1.png","../static/human_exp_images/task_size/02_2.png","../static/human_exp_images/task_size/02_3.png"],"task":"response","correct_response":3,"shuffled_array":[0,1,2,3],"catch_trial":false,"trial_type":"image-click","trial_index":26,"time_elapsed":45406,"internal_node_id":"0.0-6.0-1.2","mouse_tracking_data":[{"x":952,"y":545,"t":1,"event":"mousemove"},{"x":952,"y":542,"t":15,"event":"mousemove"},{"x":952,"y":534,"t":33,"event":"mousemove"},{"x":952,"y":528,"t":49,"event":"mousemove"},{"x":952,"y":525,"t":66,"event":"mousemove"},{"x":952,"y":523,"t":82,"event":"mousemove"},{"x":952,"y":522,"t":99,"event":"mousemove"},{"x":952,"y":520,"t":116,"event":"mousemove"},{"x":952,"y":510,"t":133,"event":"mousemove"},{"x":952,"y":499,"t":148,"event":"mousemove"},{"x":952,"y":496,"t":165,"event":"mousemove"},{"x":952,"y":493,"t":183,"event":"mousemove"},{"x":952,"y":489,"t":199,"event":"mousemove"},{"x":952,"y":487,"t":218,"event":"mousemove"},{"x":952,"y":486,"t":245,"event":"mousemove"},{"x":952,"y":484,"t":265,"event":"mousemove"},{"x":953,"y":484,"t":684,"event":"mousemove"},{"x":960,"y":484,"t":700,"event":"mousemove"},{"x":977,"y":484,"t":717,"event":"mousemove"},{"x":1001,"y":493,"t":733,"event":"mousemove"},{"x":1024,"y":510,"t":750,"event":"mousemove"},{"x":1045,"y":524,"t":766,"event":"mousemove"},{"x":1062,"y":533,"t":783,"event":"mousemove"},{"x":1071,"y":541,"t":800,"event":"mousemove"},{"x":1084,"y":550,"t":817,"event":"mousemove"},{"x":1101,"y":562,"t":833,"event":"mousemove"},{"x":1116,"y":574,"t":850,"event":"mousemove"},{"x":1133,"y":587,"t":867,"event":"mousemove"},{"x":1146,"y":596,"t":883,"event":"mousemove"},{"x":1153,"y":603,"t":900,"event":"mousemove"},{"x":1155,"y":605,"t":917,"event":"mousemove"},{"x":1157,"y":607,"t":934,"event":"mousemove"},{"x":1158,"y":608,"t":950,"event":"mousemove"},{"x":1160,"y":608,"t":966,"event":"mousemove"}],"mouse_tracking_targets":{},"correct":true},{"rt":2189,"stimulus":"<p>How confident are you about your choice ?</p>","slider_start":50,"response":84,"trial_type":"html-slider-response","trial_index":27,"time_elapsed":47598,"internal_node_id":"0.0-6.0-2.2"},{"rt":null,"stimulus":"\n        <div id='jspsych-image' style='position: relative; width: min(80vw, 80vh); height: min(80vw, 80vh);'>\n                \n                <div style='position: absolute; top: 40%; left: 30%; bottom: 40%; right: 30%;'><h1 style='font-size: 60px; color: green;'>Correct!</h1></div>\n                \n                <div class='jspsych-image' id='jspsych-image-0' data-choice='0' style='top: 0;     left: 0;'><img style=\"width: 100%; height: 100%;\" src='../static/human_exp_images/task_size/02_0.png' class=''></img></div>\n                <div class='jspsych-image' id='jspsych-image-1' data-choice='1' style='top: 0;     right: 0;'><img style=\"width: 100%; height: 100%;\" src='../static/human_exp_images/task_size/02_1.png' class=''></img></div>\n                <div class='jspsych-image' id='jspsych-image-2' data-choice='2' style='bottom: 0;  left: 0;'><img style=\"width: 100%; height: 100%;\" src='../static/human_exp_images/task_size/02_2.png' class=''></img></div>\n                <div class='jspsych-image' id='jspsych-image-3' data-choice='3' style='bottom: 0;  right: 0;'><img style=\"width: 100%; height: 100%;\" src='../static/human_exp_images/task_size/02_3.png' class='correct-choice'></img></div>\n\n        </div>","response":null,"trial_type":"html-keyboard-response","trial_index":28,"time_elapsed":49101,"internal_node_id":"0.0-6.0-3.2"},{"rt":1397,"stimulus":"<h1 style='font-size: 60px'>New Rule!</h1> <p>Press any key to begin.</p>","response":" ","trial_type":"html-keyboard-response","trial_index":29,"time_elapsed":50498,"internal_node_id":"0.0-7.0"},{"rt":null,"trial_type":"image-click","trial_index":30,"time_elapsed":50499,"internal_node_id":"0.0-8.0-0.0"},{"rt":6022,"response":0,"all_choices":["../static/human_exp_images/task_count/00_3.png","../static/human_exp_images/task_count/00_2.png","../static/human_exp_images/task_count/00_1.png","../static/human_exp_images/task_count/00_0.png"],"task":"response","correct_response":0,"shuffled_array":[3,2,1,0],"catch_trial":false,"trial_type":"image-click","trial_index":31,"time_elapsed":56522,"internal_node_id":"0.0-8.0-1.0","mouse_tracking_data":[{"x":986,"y":495,"t":5570,"event":"mousemove"},{"x":987,"y":496,"t":5574,"event":"mousemove"},{"x":991,"y":498,"t":5577,"event":"mousemove"},{"x":994,"y":500,"t":5588,"event":"mousemove"},{"x":998,"y":503,"t":5604,"event":"mousemove"},{"x":998,"y":505,"t":5621,"event":"mousemove"},{"x":999,"y":507,"t":5637,"event":"mousemove"},{"x":996,"y":505,"t":5726,"event":"mousemove"},{"x":988,"y":495,"t":5731,"event":"mousemove"},{"x":979,"y":486,"t":5736,"event":"mousemove"},{"x":966,"y":470,"t":5740,"event":"mousemove"},{"x":938,"y":428,"t":5756,"event":"mousemove"},{"x":889,"y":372,"t":5773,"event":"mousemove"},{"x":849,"y":334,"t":5790,"event":"mousemove"},{"x":814,"y":301,"t":5807,"event":"mousemove"},{"x":790,"y":284,"t":5823,"event":"mousemove"},{"x":781,"y":275,"t":5839,"event":"mousemove"},{"x":769,"y":263,"t":5856,"event":"mousemove"},{"x":762,"y":256,"t":5872,"event":"mousemove"},{"x":755,"y":251,"t":5889,"event":"mousemove"},{"x":750,"y":247,"t":5905,"event":"mousemove"},{"x":748,"y":244,"t":5923,"event":"mousemove"}],"mouse_tracking_targets":{},"correct":true},{"rt":2122,"stimulus":"<p>How confident are you about your choice ?</p>","slider_start":50,"response":83,"trial_type":"html-slider-response","trial_index":32,"time_elapsed":58644,"internal_node_id":"0.0-8.0-2.0"},{"rt":null,"stimulus":"\n        <div id='jspsych-image' style='position: relative; width: min(80vw, 80vh); height: min(80vw, 80vh);'>\n                \n                <div style='position: absolute; top: 40%; left: 30%; bottom: 40%; right: 30%;'><h1 style='font-size: 60px; color: green;'>Correct!</h1></div>\n                \n                <div class='jspsych-image' id='jspsych-image-0' data-choice='0' style='top: 0;     left: 0;'><img style=\"width: 100%; height: 100%;\" src='../static/human_exp_images/task_count/00_3.png' class='correct-choice'></img></div>\n                <div class='jspsych-image' id='jspsych-image-1' data-choice='1' style='top: 0;     right: 0;'><img style=\"width: 100%; height: 100%;\" src='../static/human_exp_images/task_count/00_2.png' class=''></img></div>\n                <div class='jspsych-image' id='jspsych-image-2' data-choice='2' style='bottom: 0;  left: 0;'><img style=\"width: 100%; height: 100%;\" src='../static/human_exp_images/task_count/00_1.png' class=''></img></div>\n                <div class='jspsych-image' id='jspsych-image-3' data-choice='3' style='bottom: 0;  right: 0;'><img style=\"width: 100%; height: 100%;\" src='../static/human_exp_images/task_count/00_0.png' class=''></img></div>\n\n        </div>","response":null,"trial_type":"html-keyboard-response","trial_index":33,"time_elapsed":60148,"internal_node_id":"0.0-8.0-3.0"},{"rt":null,"trial_type":"image-click","trial_index":34,"time_elapsed":61013,"internal_node_id":"0.0-8.0-0.1"},{"rt":1577,"response":0,"all_choices":["../static/human_exp_images/task_count/01_3.png","../static/human_exp_images/task_count/01_2.png","../static/human_exp_images/task_count/01_0.png","../static/human_exp_images/task_count/01_1.png"],"task":"response","correct_response":0,"shuffled_array":[3,2,0,1],"catch_trial":false,"trial_type":"image-click","trial_index":35,"time_elapsed":62592,"internal_node_id":"0.0-8.0-1.1","mouse_tracking_data":[{"x":947,"y":542,"t":1,"event":"mousemove"},{"x":951,"y":529,"t":15,"event":"mousemove"},{"x":956,"y":517,"t":31,"event":"mousemove"},{"x":959,"y":501,"t":49,"event":"mousemove"},{"x":965,"y":488,"t":65,"event":"mousemove"},{"x":966,"y":477,"t":81,"event":"mousemove"},{"x":970,"y":469,"t":99,"event":"mousemove"},{"x":971,"y":464,"t":115,"event":"mousemove"},{"x":973,"y":459,"t":132,"event":"mousemove"},{"x":975,"y":455,"t":149,"event":"mousemove"},{"x":975,"y":453,"t":165,"event":"mousemove"},{"x":975,"y":452,"t":181,"event":"mousemove"},{"x":975,"y":450,"t":199,"event":"mousemove"},{"x":975,"y":449,"t":1212,"event":"mousemove"},{"x":975,"y":443,"t":1228,"event":"mousemove"},{"x":970,"y":440,"t":1246,"event":"mousemove"},{"x":958,"y":431,"t":1262,"event":"mousemove"},{"x":939,"y":416,"t":1279,"event":"mousemove"},{"x":912,"y":394,"t":1295,"event":"mousemove"},{"x":879,"y":364,"t":1312,"event":"mousemove"},{"x":850,"y":335,"t":1329,"event":"mousemove"},{"x":832,"y":319,"t":1345,"event":"mousemove"},{"x":800,"y":290,"t":1361,"event":"mousemove"},{"x":787,"y":275,"t":1379,"event":"mousemove"},{"x":778,"y":266,"t":1395,"event":"mousemove"},{"x":773,"y":263,"t":1411,"event":"mousemove"},{"x":769,"y":259,"t":1429,"event":"mousemove"},{"x":768,"y":259,"t":1445,"event":"mousemove"},{"x":766,"y":259,"t":1463,"event":"mousemove"}],"mouse_tracking_targets":{},"correct":true},{"rt":2023,"stimulus":"<p>How confident are you about your choice ?</p>","slider_start":50,"response":74,"trial_type":"html-slider-response","trial_index":36,"time_elapsed":64616,"internal_node_id":"0.0-8.0-2.1"},{"rt":null,"stimulus":"\n        <div id='jspsych-image' style='position: relative; width: min(80vw, 80vh); height: min(80vw, 80vh);'>\n                \n                <div style='position: absolute; top: 40%; left: 30%; bottom: 40%; right: 30%;'><h1 style='font-size: 60px; color: green;'>Correct!</h1></div>\n                \n                <div class='jspsych-image' id='jspsych-image-0' data-choice='0' style='top: 0;     left: 0;'><img style=\"width: 100%; height: 100%;\" src='../static/human_exp_images/task_count/01_3.png' class='correct-choice'></img></div>\n                <div class='jspsych-image' id='jspsych-image-1' data-choice='1' style='top: 0;     right: 0;'><img style=\"width: 100%; height: 100%;\" src='../static/human_exp_images/task_count/01_2.png' class=''></img></div>\n                <div class='jspsych-image' id='jspsych-image-2' data-choice='2' style='bottom: 0;  left: 0;'><img style=\"width: 100%; height: 100%;\" src='../static/human_exp_images/task_count/01_0.png' class=''></img></div>\n                <div class='jspsych-image' id='jspsych-image-3' data-choice='3' style='bottom: 0;  right: 0;'><img style=\"width: 100%; height: 100%;\" src='../static/human_exp_images/task_count/01_1.png' class=''></img></div>\n\n        </div>","response":null,"trial_type":"html-keyboard-response","trial_index":37,"time_elapsed":66119,"internal_node_id":"0.0-8.0-3.1"},{"rt":null,"trial_type":"image-click","trial_index":38,"time_elapsed":71139,"internal_node_id":"0.0-8.0-0.2"},{"rt":4762,"response":1,"all_choices":["../static/human_exp_images/task_count/02_2.png","../static/human_exp_images/task_count/02_3.png","../static/human_exp_images/task_count/02_1.png","../static/human_exp_images/task_count/02_0.png"],"task":"response","correct_response":1,"shuffled_array":[2,3,1,0],"catch_trial":false,"trial_type":"image-click","trial_index":39,"time_elapsed":75904,"internal_node_id":"0.0-8.0-1.2","mouse_tracking_data":[{"x":946,"y":538,"t":1,"event":"mousemove"},{"x":946,"y":530,"t":15,"event":"mousemove"},{"x":946,"y":519,"t":31,"event":"mousemove"},{"x":946,"y":511,"t":48,"event":"mousemove"},{"x":946,"y":501,"t":65,"event":"mousemove"},{"x":946,"y":492,"t":82,"event":"mousemove"},{"x":946,"y":484,"t":98,"event":"mousemove"},{"x":946,"y":477,"t":115,"event":"mousemove"},{"x":946,"y":475,"t":131,"event":"mousemove"},{"x":946,"y":473,"t":174,"event":"mousemove"},{"x":946,"y":472,"t":418,"event":"mousemove"},{"x":946,"y":470,"t":2400,"event":"mousemove"},{"x":946,"y":468,"t":2417,"event":"mousemove"},{"x":946,"y":467,"t":2434,"event":"mousemove"},{"x":945,"y":465,"t":2444,"event":"mousemove"},{"x":943,"y":463,"t":2446,"event":"mousemove"},{"x":940,"y":460,"t":2454,"event":"mousemove"},{"x":938,"y":458,"t":2457,"event":"mousemove"},{"x":935,"y":453,"t":2462,"event":"mousemove"},{"x":924,"y":443,"t":2479,"event":"mousemove"},{"x":910,"y":422,"t":2495,"event":"mousemove"},{"x":898,"y":401,"t":2511,"event":"mousemove"},{"x":890,"y":384,"t":2529,"event":"mousemove"},{"x":886,"y":377,"t":2545,"event":"mousemove"},{"x":883,"y":374,"t":2562,"event":"mousemove"},{"x":881,"y":370,"t":2579,"event":"mousemove"},{"x":879,"y":369,"t":2595,"event":"mousemove"},{"x":878,"y":367,"t":2613,"event":"mousemove"},{"x":869,"y":362,"t":2628,"event":"mousemove"},{"x":857,"y":352,"t":2646,"event":"mousemove"},{"x":845,"y":343,"t":2662,"event":"mousemove"},{"x":838,"y":338,"t":2679,"event":"mousemove"},{"x":830,"y":330,"t":2695,"event":"mousemove"},{"x":821,"y":321,"t":2713,"event":"mousemove"},{"x":815,"y":316,"t":2728,"event":"mousemove"},{"x":809,"y":309,"t":2746,"event":"mousemove"},{"x":806,"y":307,"t":2763,"event":"mousemove"},{"x":801,"y":304,"t":2779,"event":"mousemove"},{"x":796,"y":299,"t":2796,"event":"mousemove"},{"x":791,"y":294,"t":2812,"event":"mousemove"},{"x":785,"y":292,"t":2829,"event":"mousemove"},{"x":784,"y":289,"t":2845,"event":"mousemove"},{"x":782,"y":287,"t":2862,"event":"mousemove"},{"x":782,"y":285,"t":2880,"event":"mousemove"},{"x":780,"y":285,"t":2895,"event":"mousemove"},{"x":779,"y":283,"t":2912,"event":"mousemove"},{"x":780,"y":283,"t":3841,"event":"mousemove"},{"x":782,"y":283,"t":3850,"event":"mousemove"},{"x":784,"y":283,"t":3862,"event":"mousemove"},{"x":785,"y":283,"t":3868,"event":"mousemove"},{"x":789,"y":283,"t":3877,"event":"mousemove"},{"x":790,"y":283,"t":3881,"event":"mousemove"},{"x":794,"y":283,"t":3886,"event":"mousemove"},{"x":801,"y":283,"t":3902,"event":"mousemove"},{"x":814,"y":283,"t":3920,"event":"mousemove"},{"x":828,"y":283,"t":3936,"event":"mousemove"},{"x":845,"y":283,"t":3952,"event":"mousemove"},{"x":862,"y":287,"t":3968,"event":"mousemove"},{"x":884,"y":290,"t":3986,"event":"mousemove"},{"x":901,"y":294,"t":4002,"event":"mousemove"},{"x":929,"y":298,"t":4019,"event":"mousemove"},{"x":949,"y":302,"t":4035,"event":"mousemove"},{"x":964,"y":306,"t":4053,"event":"mousemove"},{"x":982,"y":308,"t":4069,"event":"mousemove"},{"x":1000,"y":309,"t":4085,"event":"mousemove"},{"x":1017,"y":311,"t":4103,"event":"mousemove"},{"x":1046,"y":313,"t":4119,"event":"mousemove"},{"x":1082,"y":313,"t":4137,"event":"mousemove"},{"x":1117,"y":313,"t":4153,"event":"mousemove"},{"x":1166,"y":313,"t":4169,"event":"mousemove"},{"x":1190,"y":313,"t":4186,"event":"mousemove"},{"x":1206,"y":313,"t":4202,"event":"mousemove"},{"x":1222,"y":313,"t":4219,"event":"mousemove"},{"x":1232,"y":313,"t":4236,"event":"mousemove"},{"x":1241,"y":311,"t":4253,"event":"mousemove"},{"x":1246,"y":308,"t":4270,"event":"mousemove"},{"x":1249,"y":306,"t":4285,"event":"mousemove"}],"mouse_tracking_targets":{},"correct":true},{"rt":2084,"stimulus":"<p>How confident are you about your choice ?</p>","slider_start":50,"response":78,"trial_type":"html-slider-response","trial_index":40,"time_elapsed":77992,"internal_node_id":"0.0-8.0-2.2"},{"rt":null,"stimulus":"\n        <div id='jspsych-image' style='position: relative; width: min(80vw, 80vh); height: min(80vw, 80vh);'>\n                \n                <div style='position: absolute; top: 40%; left: 30%; bottom: 40%; right: 30%;'><h1 style='font-size: 60px; color: green;'>Correct!</h1></div>\n                \n                <div class='jspsych-image' id='jspsych-image-0' data-choice='0' style='top: 0;     left: 0;'><img style=\"width: 100%; height: 100%;\" src='../static/human_exp_images/task_count/02_2.png' class=''></img></div>\n                <div class='jspsych-image' id='jspsych-image-1' data-choice='1' style='top: 0;     right: 0;'><img style=\"width: 100%; height: 100%;\" src='../static/human_exp_images/task_count/02_3.png' class='correct-choice'></img></div>\n                <div class='jspsych-image' id='jspsych-image-2' data-choice='2' style='bottom: 0;  left: 0;'><img style=\"width: 100%; height: 100%;\" src='../static/human_exp_images/task_count/02_1.png' class=''></img></div>\n                <div class='jspsych-image' id='jspsych-image-3' data-choice='3' style='bottom: 0;  right: 0;'><img style=\"width: 100%; height: 100%;\" src='../static/human_exp_images/task_count/02_0.png' class=''></img></div>\n\n        </div>","response":null,"trial_type":"html-keyboard-response","trial_index":41,"time_elapsed":79498,"internal_node_id":"0.0-8.0-3.2"},{"rt":1046,"stimulus":"<h1 style='font-size: 60px'>New Rule!</h1> <p>Press any key to begin.</p>","response":" ","trial_type":"html-keyboard-response","trial_index":42,"time_elapsed":80545,"internal_node_id":"0.0-9.0"},{"rt":null,"trial_type":"image-click","trial_index":43,"time_elapsed":81209,"internal_node_id":"0.0-10.0-0.0"},{"rt":10990,"response":1,"all_choices":["../static/human_exp_images/task_size_count_1/00_0.png","../static/human_exp_images/task_size_count_1/00_3.png","../static/human_exp_images/task_size_count_1/00_1.png","../static/human_exp_images/task_size_count_1/00_2.png"],"task":"response","correct_response":1,"shuffled_array":[0,3,1,2],"catch_trial":false,"trial_type":"image-click","trial_index":44,"time_elapsed":92203,"internal_node_id":"0.0-10.0-1.0","mouse_tracking_data":[{"x":990,"y":543,"t":1,"event":"mousemove"},{"x":990,"y":533,"t":12,"event":"mousemove"},{"x":986,"y":525,"t":29,"event":"mousemove"},{"x":983,"y":518,"t":46,"event":"mousemove"},{"x":983,"y":514,"t":62,"event":"mousemove"},{"x":983,"y":513,"t":79,"event":"mousemove"},{"x":983,"y":511,"t":99,"event":"mousemove"},{"x":981,"y":506,"t":113,"event":"mousemove"},{"x":981,"y":499,"t":130,"event":"mousemove"},{"x":981,"y":496,"t":146,"event":"mousemove"},{"x":981,"y":492,"t":163,"event":"mousemove"},{"x":980,"y":492,"t":207,"event":"mousemove"},{"x":980,"y":491,"t":1391,"event":"mousemove"},{"x":980,"y":489,"t":3224,"event":"mousemove"},{"x":978,"y":489,"t":3495,"event":"mousemove"},{"x":976,"y":489,"t":6531,"event":"mousemove"},{"x":975,"y":489,"t":10083,"event":"mousemove"},{"x":973,"y":489,"t":10155,"event":"mousemove"},{"x":973,"y":487,"t":10273,"event":"mousemove"},{"x":973,"y":486,"t":10291,"event":"mousemove"},{"x":973,"y":484,"t":10309,"event":"mousemove"},{"x":973,"y":482,"t":10336,"event":"mousemove"},{"x":973,"y":481,"t":10344,"event":"mousemove"},{"x":973,"y":479,"t":10354,"event":"mousemove"},{"x":973,"y":472,"t":10370,"event":"mousemove"},{"x":973,"y":467,"t":10388,"event":"mousemove"},{"x":973,"y":464,"t":10404,"event":"mousemove"},{"x":973,"y":462,"t":10421,"event":"mousemove"},{"x":973,"y":460,"t":10437,"event":"mousemove"},{"x":975,"y":452,"t":10454,"event":"mousemove"},{"x":977,"y":448,"t":10470,"event":"mousemove"},{"x":980,"y":443,"t":10487,"event":"mousemove"},{"x":987,"y":434,"t":10504,"event":"mousemove"},{"x":995,"y":426,"t":10521,"event":"mousemove"},{"x":1002,"y":419,"t":10538,"event":"mousemove"},{"x":1012,"y":409,"t":10554,"event":"mousemove"},{"x":1023,"y":400,"t":10571,"event":"mousemove"},{"x":1037,"y":390,"t":10587,"event":"mousemove"},{"x":1049,"y":378,"t":10604,"event":"mousemove"},{"x":1062,"y":366,"t":10620,"event":"mousemove"},{"x":1074,"y":356,"t":10638,"event":"mousemove"},{"x":1086,"y":345,"t":10654,"event":"mousemove"},{"x":1093,"y":342,"t":10671,"event":"mousemove"},{"x":1102,"y":335,"t":10687,"event":"mousemove"},{"x":1109,"y":332,"t":10704,"event":"mousemove"},{"x":1112,"y":328,"t":10721,"event":"mousemove"},{"x":1114,"y":327,"t":10737,"event":"mousemove"},{"x":1115,"y":327,"t":10754,"event":"mousemove"},{"x":1115,"y":325,"t":10771,"event":"mousemove"},{"x":1119,"y":323,"t":10788,"event":"mousemove"},{"x":1126,"y":320,"t":10804,"event":"mousemove"},{"x":1131,"y":315,"t":10821,"event":"mousemove"},{"x":1134,"y":313,"t":10837,"event":"mousemove"}],"mouse_tracking_targets":{},"correct":true},{"rt":2355,"stimulus":"<p>How confident are you about your choice ?</p>","slider_start":50,"response":79,"trial_type":"html-slider-response","trial_index":45,"time_elapsed":94559,"internal_node_id":"0.0-10.0-2.0"},{"rt":null,"stimulus":"\n        <div id='jspsych-image' style='position: relative; width: min(80vw, 80vh); height: min(80vw, 80vh);'>\n                \n                <div style='position: absolute; top: 40%; left: 30%; bottom: 40%; right: 30%;'><h1 style='font-size: 60px; color: green;'>Correct!</h1></div>\n                \n                <div class='jspsych-image' id='jspsych-image-0' data-choice='0' style='top: 0;     left: 0;'><img style=\"width: 100%; height: 100%;\" src='../static/human_exp_images/task_size_count_1/00_0.png' class=''></img></div>\n                <div class='jspsych-image' id='jspsych-image-1' data-choice='1' style='top: 0;     right: 0;'><img style=\"width: 100%; height: 100%;\" src='../static/human_exp_images/task_size_count_1/00_3.png' class='correct-choice'></img></div>\n                <div class='jspsych-image' id='jspsych-image-2' data-choice='2' style='bottom: 0;  left: 0;'><img style=\"width: 100%; height: 100%;\" src='../static/human_exp_images/task_size_count_1/00_1.png' class=''></img></div>\n                <div class='jspsych-image' id='jspsych-image-3' data-choice='3' style='bottom: 0;  right: 0;'><img style=\"width: 100%; height: 100%;\" src='../static/human_exp_images/task_size_count_1/00_2.png' class=''></img></div>\n\n        </div>","response":null,"trial_type":"html-keyboard-response","trial_index":46,"time_elapsed":96065,"internal_node_id":"0.0-10.0-3.0"},{"rt":null,"trial_type":"image-click","trial_index":47,"time_elapsed":96800,"internal_node_id":"0.0-10.0-0.1"},{"rt":4113,"response":0,"all_choices":["../static/human_exp_images/task_size_count_1/01_3.png","../static/human_exp_images/task_size_count_1/01_0.png","../static/human_exp_images/task_size_count_1/01_2.png","../static/human_exp_images/task_size_count_1/01_1.png"],"task":"response","correct_response":0,"shuffled_array":[3,0,2,1],"catch_trial":false,"trial_type":"image-click","trial_index":48,"time_elapsed":100916,"internal_node_id":"0.0-10.0-1.1","mouse_tracking_data":[{"x":972,"y":546,"t":1,"event":"mousemove"},{"x":972,"y":544,"t":12,"event":"mousemove"},{"x":972,"y":542,"t":29,"event":"mousemove"},{"x":972,"y":537,"t":45,"event":"mousemove"},{"x":972,"y":530,"t":63,"event":"mousemove"},{"x":972,"y":520,"t":79,"event":"mousemove"},{"x":972,"y":517,"t":96,"event":"mousemove"},{"x":972,"y":515,"t":112,"event":"mousemove"},{"x":972,"y":512,"t":129,"event":"mousemove"},{"x":972,"y":510,"t":145,"event":"mousemove"},{"x":972,"y":508,"t":162,"event":"mousemove"},{"x":972,"y":507,"t":178,"event":"mousemove"},{"x":972,"y":505,"t":206,"event":"mousemove"},{"x":974,"y":505,"t":2969,"event":"mousemove"},{"x":976,"y":505,"t":2975,"event":"mousemove"},{"x":977,"y":505,"t":2983,"event":"mousemove"},{"x":979,"y":505,"t":3031,"event":"mousemove"},{"x":979,"y":503,"t":3422,"event":"mousemove"},{"x":979,"y":500,"t":3429,"event":"mousemove"},{"x":977,"y":500,"t":3432,"event":"mousemove"},{"x":976,"y":495,"t":3436,"event":"mousemove"},{"x":974,"y":495,"t":3443,"event":"mousemove"},{"x":970,"y":490,"t":3445,"event":"mousemove"},{"x":964,"y":480,"t":3462,"event":"mousemove"},{"x":954,"y":465,"t":3479,"event":"mousemove"},{"x":942,"y":445,"t":3496,"event":"mousemove"},{"x":929,"y":426,"t":3513,"event":"mousemove"},{"x":920,"y":411,"t":3529,"event":"mousemove"},{"x":915,"y":402,"t":3546,"event":"mousemove"},{"x":910,"y":397,"t":3563,"event":"mousemove"},{"x":906,"y":392,"t":3579,"event":"mousemove"},{"x":899,"y":385,"t":3596,"event":"mousemove"},{"x":891,"y":376,"t":3612,"event":"mousemove"},{"x":882,"y":366,"t":3630,"event":"mousemove"},{"x":877,"y":360,"t":3645,"event":"mousemove"},{"x":870,"y":350,"t":3663,"event":"mousemove"},{"x":865,"y":343,"t":3679,"event":"mousemove"},{"x":860,"y":337,"t":3696,"event":"mousemove"},{"x":853,"y":331,"t":3713,"event":"mousemove"},{"x":848,"y":326,"t":3730,"event":"mousemove"},{"x":844,"y":323,"t":3745,"event":"mousemove"},{"x":836,"y":312,"t":3762,"event":"mousemove"},{"x":833,"y":309,"t":3779,"event":"mousemove"},{"x":828,"y":305,"t":3795,"event":"mousemove"},{"x":824,"y":300,"t":3813,"event":"mousemove"},{"x":821,"y":295,"t":3829,"event":"mousemove"},{"x":816,"y":291,"t":3846,"event":"mousemove"},{"x":814,"y":288,"t":3863,"event":"mousemove"},{"x":811,"y":285,"t":3880,"event":"mousemove"},{"x":809,"y":281,"t":3896,"event":"mousemove"},{"x":806,"y":280,"t":3913,"event":"mousemove"},{"x":806,"y":278,"t":3929,"event":"mousemove"},{"x":804,"y":278,"t":3947,"event":"mousemove"},{"x":802,"y":276,"t":3963,"event":"mousemove"},{"x":802,"y":274,"t":3980,"event":"mousemove"},{"x":801,"y":274,"t":4020,"event":"mousemove"}],"mouse_tracking_targets":{},"correct":true},{"rt":2162,"stimulus":"<p>How confident are you about your choice ?</p>","slider_start":50,"response":76,"trial_type":"html-slider-response","trial_index":49,"time_elapsed":103081,"internal_node_id":"0.0-10.0-2.1"},{"rt":null,"stimulus":"\n        <div id='jspsych-image' style='position: relative; width: min(80vw, 80vh); height: min(80vw, 80vh);'>\n                \n                <div style='position: absolute; top: 40%; left: 30%; bottom: 40%; right: 30%;'><h1 style='font-size: 60px; color: green;'>Correct!</h1></div>\n                \n                <div class='jspsych-image' id='jspsych-image-0' data-choice='0' style='top: 0;     left: 0;'><img style=\"width: 100%; height: 100%;\" src='../static/human_exp_images/task_size_count_1/01_3.png' class='correct-choice'></img></div>\n                <div class='jspsych-image' id='jspsych-image-1' data-choice='1' style='top: 0;     right: 0;'><img style=\"width: 100%; height: 100%;\" src='../static/human_exp_images/task_size_count_1/01_0.png' class=''></img></div>\n                <div class='jspsych-image' id='jspsych-image-2' data-choice='2' style='bottom: 0;  left: 0;'><img style=\"width: 100%; height: 100%;\" src='../static/human_exp_images/task_size_count_1/01_2.png' class=''></img></div>\n                <div class='jspsych-image' id='jspsych-image-3' data-choice='3' style='bottom: 0;  right: 0;'><img style=\"width: 100%; height: 100%;\" src='../static/human_exp_images/task_size_count_1/01_1.png' class=''></img></div>\n\n        </div>","response":null,"trial_type":"html-keyboard-response","trial_index":50,"time_elapsed":104585,"internal_node_id":"0.0-10.0-3.1"},{"rt":null,"trial_type":"image-click","trial_index":51,"time_elapsed":104587,"internal_node_id":"0.0-10.0-0.2"},{"rt":14963,"response":2,"all_choices":["../static/human_exp_images/task_size_count_1/02_0.png","../static/human_exp_images/task_size_count_1/02_1.png","../static/human_exp_images/task_size_count_1/02_3.png","../static/human_exp_images/task_size_count_1/02_2.png"],"task":"response","correct_response":2,"shuffled_array":[0,1,3,2],"catch_trial":false,"trial_type":"image-click","trial_index":52,"time_elapsed":119551,"internal_node_id":"0.0-10.0-1.2","mouse_tracking_data":[{"x":961,"y":483,"t":14342,"event":"mousemove"},{"x":959,"y":483,"t":14344,"event":"mousemove"},{"x":954,"y":483,"t":14352,"event":"mousemove"},{"x":953,"y":483,"t":14355,"event":"mousemove"},{"x":949,"y":483,"t":14361,"event":"mousemove"},{"x":947,"y":483,"t":14366,"event":"mousemove"},{"x":942,"y":483,"t":14370,"event":"mousemove"},{"x":933,"y":483,"t":14386,"event":"mousemove"},{"x":918,"y":485,"t":14403,"event":"mousemove"},{"x":904,"y":493,"t":14419,"event":"mousemove"},{"x":892,"y":500,"t":14437,"event":"mousemove"},{"x":882,"y":507,"t":14452,"event":"mousemove"},{"x":873,"y":512,"t":14470,"event":"mousemove"},{"x":865,"y":517,"t":14486,"event":"mousemove"},{"x":855,"y":524,"t":14503,"event":"mousemove"},{"x":844,"y":532,"t":14520,"event":"mousemove"},{"x":832,"y":541,"t":14536,"event":"mousemove"},{"x":815,"y":559,"t":14553,"event":"mousemove"},{"x":805,"y":571,"t":14569,"event":"mousemove"},{"x":796,"y":583,"t":14586,"event":"mousemove"},{"x":784,"y":600,"t":14604,"event":"mousemove"},{"x":774,"y":618,"t":14620,"event":"mousemove"},{"x":769,"y":628,"t":14636,"event":"mousemove"},{"x":766,"y":635,"t":14653,"event":"mousemove"},{"x":762,"y":640,"t":14670,"event":"mousemove"},{"x":760,"y":642,"t":14687,"event":"mousemove"},{"x":760,"y":644,"t":14702,"event":"mousemove"},{"x":759,"y":644,"t":14724,"event":"mousemove"},{"x":757,"y":645,"t":14736,"event":"mousemove"},{"x":754,"y":652,"t":14754,"event":"mousemove"},{"x":752,"y":654,"t":14770,"event":"mousemove"},{"x":750,"y":657,"t":14787,"event":"mousemove"}],"mouse_tracking_targets":{},"correct":true},{"rt":2537,"stimulus":"<p>How confident are you about your choice ?</p>","slider_start":50,"response":81,"trial_type":"html-slider-response","trial_index":53,"time_elapsed":122090,"internal_node_id":"0.0-10.0-2.2"},{"rt":null,"stimulus":"\n        <div id='jspsych-image' style='position: relative; width: min(80vw, 80vh); height: min(80vw, 80vh);'>\n                \n                <div style='position: absolute; top: 40%; left: 30%; bottom: 40%; right: 30%;'><h1 style='font-size: 60px; color: green;'>Correct!</h1></div>\n                \n                <div class='jspsych-image' id='jspsych-image-0' data-choice='0' style='top: 0;     left: 0;'><img style=\"width: 100%; height: 100%;\" src='../static/human_exp_images/task_size_count_1/02_0.png' class=''></img></div>\n                <div class='jspsych-image' id='jspsych-image-1' data-choice='1' style='top: 0;     right: 0;'><img style=\"width: 100%; height: 100%;\" src='../static/human_exp_images/task_size_count_1/02_1.png' class=''></img></div>\n                <div class='jspsych-image' id='jspsych-image-2' data-choice='2' style='bottom: 0;  left: 0;'><img style=\"width: 100%; height: 100%;\" src='../static/human_exp_images/task_size_count_1/02_3.png' class='correct-choice'></img></div>\n                <div class='jspsych-image' id='jspsych-image-3' data-choice='3' style='bottom: 0;  right: 0;'><img style=\"width: 100%; height: 100%;\" src='../static/human_exp_images/task_size_count_1/02_2.png' class=''></img></div>\n\n        </div>","response":null,"trial_type":"html-keyboard-response","trial_index":54,"time_elapsed":123593,"internal_node_id":"0.0-10.0-3.2"},{"rt":1581,"stimulus":"<h1 style='font-size: 60px'>New Rule!</h1> <p>Press any key to begin.</p>","response":" ","trial_type":"html-keyboard-response","trial_index":55,"time_elapsed":125176,"internal_node_id":"0.0-11.0"},{"rt":null,"trial_type":"image-click","trial_index":56,"time_elapsed":126099,"internal_node_id":"0.0-12.0-0.0"},{"rt":140090,"response":0,"all_choices":["../static/human_exp_images/task_size_flip_1/00_3.png","../static/human_exp_images/task_size_flip_1/00_1.png","../static/human_exp_images/task_size_flip_1/00_0.png","../static/human_exp_images/task_size_flip_1/00_2.png"],"task":"response","correct_response":0,"shuffled_array":[3,1,0,2],"catch_trial":false,"trial_type":"image-click","trial_index":57,"time_elapsed":266191,"internal_node_id":"0.0-12.0-1.0","mouse_tracking_data":[{"x":937,"y":537,"t":1,"event":"mousemove"},{"x":935,"y":527,"t":15,"event":"mousemove"},{"x":932,"y":518,"t":32,"event":"mousemove"},{"x":932,"y":508,"t":48,"event":"mousemove"},{"x":932,"y":503,"t":65,"event":"mousemove"},{"x":932,"y":499,"t":82,"event":"mousemove"},{"x":932,"y":492,"t":99,"event":"mousemove"},{"x":932,"y":485,"t":115,"event":"mousemove"},{"x":932,"y":477,"t":133,"event":"mousemove"},{"x":932,"y":470,"t":148,"event":"mousemove"},{"x":932,"y":467,"t":165,"event":"mousemove"},{"x":932,"y":463,"t":182,"event":"mousemove"},{"x":932,"y":462,"t":198,"event":"mousemove"},{"x":932,"y":460,"t":221,"event":"mousemove"},{"x":932,"y":458,"t":284,"event":"mousemove"},{"x":933,"y":458,"t":139079,"event":"mousemove"},{"x":933,"y":453,"t":139315,"event":"mousemove"},{"x":933,"y":450,"t":139325,"event":"mousemove"},{"x":933,"y":448,"t":139328,"event":"mousemove"},{"x":932,"y":445,"t":139332,"event":"mousemove"},{"x":928,"y":439,"t":139349,"event":"mousemove"},{"x":925,"y":433,"t":139366,"event":"mousemove"},{"x":920,"y":427,"t":139382,"event":"mousemove"},{"x":916,"y":421,"t":139399,"event":"mousemove"},{"x":911,"y":414,"t":139415,"event":"mousemove"},{"x":908,"y":405,"t":139432,"event":"mousemove"},{"x":897,"y":386,"t":139449,"event":"mousemove"},{"x":882,"y":362,"t":139465,"event":"mousemove"},{"x":872,"y":345,"t":139483,"event":"mousemove"},{"x":855,"y":319,"t":139498,"event":"mousemove"},{"x":835,"y":290,"t":139515,"event":"mousemove"},{"x":809,"y":258,"t":139532,"event":"mousemove"},{"x":782,"y":221,"t":139549,"event":"mousemove"},{"x":772,"y":208,"t":139566,"event":"mousemove"},{"x":762,"y":198,"t":139582,"event":"mousemove"},{"x":750,"y":189,"t":139600,"event":"mousemove"},{"x":738,"y":182,"t":139616,"event":"mousemove"},{"x":722,"y":177,"t":139632,"event":"mousemove"},{"x":717,"y":174,"t":139649,"event":"mousemove"},{"x":716,"y":174,"t":139753,"event":"mousemove"},{"x":714,"y":174,"t":139771,"event":"mousemove"},{"x":712,"y":174,"t":139798,"event":"mousemove"}],"mouse_tracking_targets":{},"correct":true},{"rt":2386,"stimulus":"<p>How confident are you about your choice ?</p>","slider_start":50,"response":80,"trial_type":"html-slider-response","trial_index":58,"time_elapsed":268582,"internal_node_id":"0.0-12.0-2.0"},{"rt":null,"stimulus":"\n        <div id='jspsych-image' style='position: relative; width: min(80vw, 80vh); height: min(80vw, 80vh);'>\n                \n                <div style='position: absolute; top: 40%; left: 30%; bottom: 40%; right: 30%;'><h1 style='font-size: 60px; color: green;'>Correct!</h1></div>\n                \n                <div class='jspsych-image' id='jspsych-image-0' data-choice='0' style='top: 0;     left: 0;'><img style=\"width: 100%; height: 100%;\" src='../static/human_exp_images/task_size_flip_1/00_3.png' class='correct-choice'></img></div>\n                <div class='jspsych-image' id='jspsych-image-1' data-choice='1' style='top: 0;     right: 0;'><img style=\"width: 100%; height: 100%;\" src='../static/human_exp_images/task_size_flip_1/00_1.png' class=''></img></div>\n                <div class='jspsych-image' id='jspsych-image-2' data-choice='2' style='bottom: 0;  left: 0;'><img style=\"width: 100%; height: 100%;\" src='../static/human_exp_images/task_size_flip_1/00_0.png' class=''></img></div>\n                <div class='jspsych-image' id='jspsych-image-3' data-choice='3' style='bottom: 0;  right: 0;'><img style=\"width: 100%; height: 100%;\" src='../static/human_exp_images/task_size_flip_1/00_2.png' class=''></img></div>\n\n        </div>","response":null,"trial_type":"html-keyboard-response","trial_index":59,"time_elapsed":270086,"internal_node_id":"0.0-12.0-3.0"},{"rt":null,"trial_type":"image-click","trial_index":60,"time_elapsed":271966,"internal_node_id":"0.0-12.0-0.1"},{"rt":43533,"response":3,"all_choices":["../static/human_exp_images/task_size_flip_1/01_1.png","../static/human_exp_images/task_size_flip_1/01_0.png","../static/human_exp_images/task_size_flip_1/01_2.png","../static/human_exp_images/task_size_flip_1/01_3.png"],"task":"response","correct_response":3,"shuffled_array":[1,0,2,3],"catch_trial":false,"trial_type":"image-click","trial_index":61,"time_elapsed":315504,"internal_node_id":"0.0-12.0-1.1","mouse_tracking_data":[{"x":962,"y":545,"t":1,"event":"mousemove"},{"x":962,"y":533,"t":12,"event":"mousemove"},{"x":962,"y":519,"t":30,"event":"mousemove"},{"x":962,"y":504,"t":45,"event":"mousemove"},{"x":962,"y":492,"t":63,"event":"mousemove"},{"x":962,"y":482,"t":80,"event":"mousemove"},{"x":962,"y":475,"t":96,"event":"mousemove"},{"x":962,"y":467,"t":113,"event":"mousemove"},{"x":962,"y":463,"t":129,"event":"mousemove"},{"x":964,"y":463,"t":42759,"event":"mousemove"},{"x":1000,"y":463,"t":42776,"event":"mousemove"},{"x":1024,"y":468,"t":42793,"event":"mousemove"},{"x":1062,"y":486,"t":42808,"event":"mousemove"},{"x":1096,"y":500,"t":42825,"event":"mousemove"},{"x":1126,"y":520,"t":42842,"event":"mousemove"},{"x":1161,"y":540,"t":42859,"event":"mousemove"},{"x":1187,"y":562,"t":42875,"event":"mousemove"},{"x":1199,"y":571,"t":42893,"event":"mousemove"},{"x":1219,"y":586,"t":42909,"event":"mousemove"},{"x":1238,"y":602,"t":42925,"event":"mousemove"},{"x":1247,"y":611,"t":42942,"event":"mousemove"},{"x":1254,"y":620,"t":42958,"event":"mousemove"},{"x":1259,"y":626,"t":42976,"event":"mousemove"},{"x":1264,"y":633,"t":42992,"event":"mousemove"},{"x":1269,"y":640,"t":43009,"event":"mousemove"},{"x":1278,"y":650,"t":43026,"event":"mousemove"},{"x":1283,"y":662,"t":43042,"event":"mousemove"}],"mouse_tracking_targets":{},"correct":true},{"rt":2549,"stimulus":"<p>How confident are you about your choice ?</p>","slider_start":50,"response":78,"trial_type":"html-slider-response","trial_index":62,"time_elapsed":318054,"internal_node_id":"0.0-12.0-2.1"},{"rt":null,"stimulus":"\n        <div id='jspsych-image' style='position: relative; width: min(80vw, 80vh); height: min(80vw, 80vh);'>\n                \n                <div style='position: absolute; top: 40%; left: 30%; bottom: 40%; right: 30%;'><h1 style='font-size: 60px; color: green;'>Correct!</h1></div>\n                \n                <div class='jspsych-image' id='jspsych-image-0' data-choice='0' style='top: 0;     left: 0;'><img style=\"width: 100%; height: 100%;\" src='../static/human_exp_images/task_size_flip_1/01_1.png' class=''></img></div>\n                <div class='jspsych-image' id='jspsych-image-1' data-choice='1' style='top: 0;     right: 0;'><img style=\"width: 100%; height: 100%;\" src='../static/human_exp_images/task_size_flip_1/01_0.png' class=''></img></div>\n                <div class='jspsych-image' id='jspsych-image-2' data-choice='2' style='bottom: 0;  left: 0;'><img style=\"width: 100%; height: 100%;\" src='../static/human_exp_images/task_size_flip_1/01_2.png' class=''></img></div>\n                <div class='jspsych-image' id='jspsych-image-3' data-choice='3' style='bottom: 0;  right: 0;'><img style=\"width: 100%; height: 100%;\" src='../static/human_exp_images/task_size_flip_1/01_3.png' class='correct-choice'></img></div>\n\n        </div>","response":null,"trial_type":"html-keyboard-response","trial_index":63,"time_elapsed":319557,"internal_node_id":"0.0-12.0-3.1"},{"rt":null,"trial_type":"image-click","trial_index":64,"time_elapsed":323594,"internal_node_id":"0.0-12.0-0.2"},{"rt":51233,"response":2,"all_choices":["../static/human_exp_images/task_size_flip_1/02_0.png","../static/human_exp_images/task_size_flip_1/02_1.png","../static/human_exp_images/task_size_flip_1/02_3.png","../static/human_exp_images/task_size_flip_1/02_2.png"],"task":"response","correct_response":2,"shuffled_array":[0,1,3,2],"catch_trial":false,"trial_type":"image-click","trial_index":65,"time_elapsed":374829,"internal_node_id":"0.0-12.0-1.2","mouse_tracking_data":[{"x":972,"y":533,"t":1,"event":"mousemove"},{"x":972,"y":514,"t":13,"event":"mousemove"},{"x":972,"y":507,"t":30,"event":"mousemove"},{"x":972,"y":494,"t":47,"event":"mousemove"},{"x":972,"y":482,"t":63,"event":"mousemove"},{"x":972,"y":470,"t":80,"event":"mousemove"},{"x":972,"y":463,"t":97,"event":"mousemove"},{"x":972,"y":455,"t":114,"event":"mousemove"},{"x":972,"y":453,"t":129,"event":"mousemove"},{"x":972,"y":451,"t":147,"event":"mousemove"},{"x":972,"y":449,"t":163,"event":"mousemove"},{"x":971,"y":449,"t":194,"event":"mousemove"},{"x":971,"y":446,"t":50723,"event":"mousemove"},{"x":971,"y":445,"t":50730,"event":"mousemove"},{"x":971,"y":441,"t":50746,"event":"mousemove"},{"x":969,"y":441,"t":50787,"event":"mousemove"},{"x":966,"y":441,"t":50794,"event":"mousemove"},{"x":957,"y":441,"t":50811,"event":"mousemove"},{"x":945,"y":449,"t":50827,"event":"mousemove"},{"x":930,"y":462,"t":50844,"event":"mousemove"},{"x":915,"y":476,"t":50860,"event":"mousemove"},{"x":904,"y":493,"t":50876,"event":"mousemove"},{"x":895,"y":507,"t":50894,"event":"mousemove"},{"x":885,"y":524,"t":50911,"event":"mousemove"},{"x":880,"y":531,"t":50927,"event":"mousemove"},{"x":870,"y":548,"t":50944,"event":"mousemove"},{"x":857,"y":567,"t":50960,"event":"mousemove"},{"x":846,"y":588,"t":50978,"event":"mousemove"},{"x":840,"y":597,"t":50994,"event":"mousemove"},{"x":822,"y":620,"t":51010,"event":"mousemove"},{"x":815,"y":627,"t":51028,"event":"mousemove"},{"x":812,"y":634,"t":51044,"event":"mousemove"}],"mouse_tracking_targets":{},"correct":true},{"rt":1876,"stimulus":"<p>How confident are you about your choice ?</p>","slider_start":50,"response":76,"trial_type":"html-slider-response","trial_index":66,"time_elapsed":376707,"internal_node_id":"0.0-12.0-2.2"},{"rt":null,"stimulus":"\n        <div id='jspsych-image' style='position: relative; width: min(80vw, 80vh); height: min(80vw, 80vh);'>\n                \n                <div style='position: absolute; top: 40%; left: 30%; bottom: 40%; right: 30%;'><h1 style='font-size: 60px; color: green;'>Correct!</h1></div>\n                \n                <div class='jspsych-image' id='jspsych-image-0' data-choice='0' style='top: 0;     left: 0;'><img style=\"width: 100%; height: 100%;\" src='../static/human_exp_images/task_size_flip_1/02_0.png' class=''></img></div>\n                <div class='jspsych-image' id='jspsych-image-1' data-choice='1' style='top: 0;     right: 0;'><img style=\"width: 100%; height: 100%;\" src='../static/human_exp_images/task_size_flip_1/02_1.png' class=''></img></div>\n                <div class='jspsych-image' id='jspsych-image-2' data-choice='2' style='bottom: 0;  left: 0;'><img style=\"width: 100%; height: 100%;\" src='../static/human_exp_images/task_size_flip_1/02_3.png' class='correct-choice'></img></div>\n                <div class='jspsych-image' id='jspsych-image-3' data-choice='3' style='bottom: 0;  right: 0;'><img style=\"width: 100%; height: 100%;\" src='../static/human_exp_images/task_size_flip_1/02_2.png' class=''></img></div>\n\n        </div>","response":null,"trial_type":"html-keyboard-response","trial_index":67,"time_elapsed":378210,"internal_node_id":"0.0-12.0-3.2"},{"rt":1377,"stimulus":"<h1 style='font-size: 60px'>New Rule!</h1> <p>Press any key to begin.</p>","response":" ","trial_type":"html-keyboard-response","trial_index":68,"time_elapsed":379589,"internal_node_id":"0.0-13.0"},{"rt":null,"trial_type":"image-click","trial_index":69,"time_elapsed":380607,"internal_node_id":"0.0-14.0-0.0"},{"rt":32966,"response":1,"all_choices":["../static/human_exp_images/task_pos_count_2/00_0.png","../static/human_exp_images/task_pos_count_2/00_3.png","../static/human_exp_images/task_pos_count_2/00_2.png","../static/human_exp_images/task_pos_count_2/00_1.png"],"task":"response","correct_response":1,"shuffled_array":[0,3,2,1],"catch_trial":false,"trial_type":"image-click","trial_index":70,"time_elapsed":413575,"internal_node_id":"0.0-14.0-1.0","mouse_tracking_data":[{"x":985,"y":542,"t":1,"event":"mousemove"},{"x":978,"y":521,"t":14,"event":"mousemove"},{"x":974,"y":505,"t":31,"event":"mousemove"},{"x":967,"y":470,"t":47,"event":"mousemove"},{"x":963,"y":444,"t":64,"event":"mousemove"},{"x":959,"y":431,"t":80,"event":"mousemove"},{"x":959,"y":422,"t":98,"event":"mousemove"},{"x":958,"y":415,"t":115,"event":"mousemove"},{"x":956,"y":414,"t":131,"event":"mousemove"},{"x":956,"y":412,"t":243,"event":"mousemove"},{"x":956,"y":410,"t":332,"event":"mousemove"},{"x":956,"y":408,"t":351,"event":"mousemove"},{"x":956,"y":407,"t":377,"event":"mousemove"},{"x":956,"y":405,"t":432,"event":"mousemove"},{"x":957,"y":407,"t":9285,"event":"mousemove"},{"x":961,"y":410,"t":9301,"event":"mousemove"},{"x":961,"y":412,"t":9328,"event":"mousemove"},{"x":961,"y":413,"t":9346,"event":"mousemove"},{"x":935,"y":413,"t":9362,"event":"mousemove"},{"x":857,"y":413,"t":9379,"event":"mousemove"},{"x":704,"y":388,"t":9396,"event":"mousemove"},{"x":430,"y":334,"t":9412,"event":"mousemove"},{"x":79,"y":277,"t":9428,"event":"mousemove"},{"x":1526,"y":6,"t":25287,"event":"mousemove"},{"x":1539,"y":23,"t":25305,"event":"mousemove"},{"x":1550,"y":34,"t":25321,"event":"mousemove"},{"x":1563,"y":51,"t":25338,"event":"mousemove"},{"x":1570,"y":61,"t":25354,"event":"mousemove"},{"x":1574,"y":70,"t":25371,"event":"mousemove"},{"x":1579,"y":83,"t":25387,"event":"mousemove"},{"x":1582,"y":96,"t":25404,"event":"mousemove"},{"x":1584,"y":110,"t":25421,"event":"mousemove"},{"x":1584,"y":129,"t":25438,"event":"mousemove"},{"x":1584,"y":146,"t":25454,"event":"mousemove"},{"x":1582,"y":159,"t":25471,"event":"mousemove"},{"x":1568,"y":181,"t":25487,"event":"mousemove"},{"x":1547,"y":208,"t":25505,"event":"mousemove"},{"x":1517,"y":240,"t":25521,"event":"mousemove"},{"x":1489,"y":266,"t":25537,"event":"mousemove"},{"x":1463,"y":286,"t":25554,"event":"mousemove"},{"x":1449,"y":296,"t":25571,"event":"mousemove"},{"x":1435,"y":304,"t":25587,"event":"mousemove"},{"x":1423,"y":307,"t":25604,"event":"mousemove"},{"x":1413,"y":313,"t":25621,"event":"mousemove"},{"x":1392,"y":320,"t":25638,"event":"mousemove"},{"x":1380,"y":326,"t":25654,"event":"mousemove"},{"x":1368,"y":333,"t":25671,"event":"mousemove"},{"x":1361,"y":340,"t":25688,"event":"mousemove"},{"x":1351,"y":349,"t":25705,"event":"mousemove"},{"x":1342,"y":355,"t":25720,"event":"mousemove"},{"x":1337,"y":361,"t":25737,"event":"mousemove"},{"x":1334,"y":364,"t":25754,"event":"mousemove"},{"x":1334,"y":366,"t":25770,"event":"mousemove"},{"x":1332,"y":366,"t":25788,"event":"mousemove"},{"x":1332,"y":367,"t":25925,"event":"mousemove"},{"x":1329,"y":369,"t":25938,"event":"mousemove"},{"x":1322,"y":379,"t":25954,"event":"mousemove"},{"x":1315,"y":386,"t":25970,"event":"mousemove"},{"x":1306,"y":398,"t":25988,"event":"mousemove"},{"x":1301,"y":407,"t":26004,"event":"mousemove"},{"x":1294,"y":413,"t":26021,"event":"mousemove"},{"x":1288,"y":420,"t":26038,"event":"mousemove"},{"x":1282,"y":425,"t":26054,"event":"mousemove"},{"x":1272,"y":432,"t":26072,"event":"mousemove"},{"x":1267,"y":437,"t":26088,"event":"mousemove"},{"x":1259,"y":441,"t":26104,"event":"mousemove"},{"x":1257,"y":441,"t":26417,"event":"mousemove"},{"x":1254,"y":441,"t":26420,"event":"mousemove"},{"x":1240,"y":441,"t":26438,"event":"mousemove"},{"x":1223,"y":441,"t":26455,"event":"mousemove"},{"x":1211,"y":441,"t":26471,"event":"mousemove"},{"x":1194,"y":441,"t":26487,"event":"mousemove"},{"x":1180,"y":441,"t":26504,"event":"mousemove"},{"x":1167,"y":441,"t":26521,"event":"mousemove"},{"x":1151,"y":441,"t":26537,"event":"mousemove"},{"x":1136,"y":441,"t":26554,"event":"mousemove"},{"x":1122,"y":441,"t":26571,"event":"mousemove"},{"x":1107,"y":441,"t":26588,"event":"mousemove"},{"x":1095,"y":441,"t":26605,"event":"mousemove"},{"x":1086,"y":441,"t":26620,"event":"mousemove"},{"x":1083,"y":441,"t":26637,"event":"mousemove"},{"x":1073,"y":441,"t":26654,"event":"mousemove"},{"x":1061,"y":441,"t":26671,"event":"mousemove"},{"x":1047,"y":441,"t":26688,"event":"mousemove"},{"x":1030,"y":449,"t":26705,"event":"mousemove"},{"x":1016,"y":456,"t":26721,"event":"mousemove"},{"x":1007,"y":460,"t":26737,"event":"mousemove"},{"x":1002,"y":463,"t":26755,"event":"mousemove"},{"x":999,"y":463,"t":26772,"event":"mousemove"},{"x":997,"y":463,"t":26788,"event":"mousemove"},{"x":995,"y":463,"t":26805,"event":"mousemove"},{"x":994,"y":463,"t":27056,"event":"mousemove"},{"x":992,"y":463,"t":27093,"event":"mousemove"},{"x":985,"y":463,"t":27105,"event":"mousemove"},{"x":971,"y":468,"t":27122,"event":"mousemove"},{"x":961,"y":472,"t":27138,"event":"mousemove"},{"x":953,"y":473,"t":27154,"event":"mousemove"},{"x":946,"y":475,"t":27172,"event":"mousemove"},{"x":941,"y":475,"t":27188,"event":"mousemove"},{"x":937,"y":475,"t":27205,"event":"mousemove"},{"x":934,"y":475,"t":27222,"event":"mousemove"},{"x":932,"y":475,"t":27238,"event":"mousemove"},{"x":929,"y":475,"t":27256,"event":"mousemove"},{"x":927,"y":475,"t":27281,"event":"mousemove"},{"x":925,"y":475,"t":27299,"event":"mousemove"},{"x":925,"y":476,"t":27941,"event":"mousemove"},{"x":925,"y":478,"t":27976,"event":"mousemove"},{"x":925,"y":480,"t":27992,"event":"mousemove"},{"x":925,"y":482,"t":28068,"event":"mousemove"},{"x":925,"y":483,"t":28266,"event":"mousemove"},{"x":925,"y":485,"t":28455,"event":"mousemove"},{"x":924,"y":485,"t":31692,"event":"mousemove"},{"x":920,"y":485,"t":31699,"event":"mousemove"},{"x":919,"y":485,"t":31702,"event":"mousemove"},{"x":915,"y":485,"t":31706,"event":"mousemove"},{"x":908,"y":487,"t":31723,"event":"mousemove"},{"x":902,"y":487,"t":31740,"event":"mousemove"},{"x":898,"y":487,"t":31757,"event":"mousemove"},{"x":895,"y":487,"t":31774,"event":"mousemove"},{"x":893,"y":487,"t":31790,"event":"mousemove"},{"x":891,"y":487,"t":31816,"event":"mousemove"},{"x":890,"y":487,"t":31833,"event":"mousemove"},{"x":888,"y":487,"t":31852,"event":"mousemove"},{"x":895,"y":487,"t":32376,"event":"mousemove"},{"x":907,"y":476,"t":32392,"event":"mousemove"},{"x":923,"y":458,"t":32409,"event":"mousemove"},{"x":935,"y":442,"t":32425,"event":"mousemove"},{"x":953,"y":422,"t":32442,"event":"mousemove"},{"x":975,"y":395,"t":32459,"event":"mousemove"},{"x":994,"y":372,"t":32476,"event":"mousemove"},{"x":1017,"y":342,"t":32491,"event":"mousemove"},{"x":1034,"y":321,"t":32508,"event":"mousemove"},{"x":1045,"y":307,"t":32526,"event":"mousemove"},{"x":1059,"y":293,"t":32542,"event":"mousemove"},{"x":1069,"y":280,"t":32559,"event":"mousemove"},{"x":1079,"y":271,"t":32575,"event":"mousemove"},{"x":1088,"y":263,"t":32592,"event":"mousemove"},{"x":1094,"y":254,"t":32609,"event":"mousemove"},{"x":1098,"y":249,"t":32625,"event":"mousemove"},{"x":1105,"y":240,"t":32642,"event":"mousemove"},{"x":1110,"y":235,"t":32658,"event":"mousemove"},{"x":1115,"y":230,"t":32676,"event":"mousemove"},{"x":1120,"y":227,"t":32692,"event":"mousemove"},{"x":1125,"y":222,"t":32709,"event":"mousemove"},{"x":1125,"y":220,"t":32725,"event":"mousemove"},{"x":1127,"y":218,"t":32742,"event":"mousemove"},{"x":1129,"y":217,"t":32760,"event":"mousemove"}],"mouse_tracking_targets":{},"correct":true},{"rt":1648,"stimulus":"<p>How confident are you about your choice ?</p>","slider_start":50,"response":73,"trial_type":"html-slider-response","trial_index":71,"time_elapsed":415226,"internal_node_id":"0.0-14.0-2.0"},{"rt":null,"stimulus":"\n        <div id='jspsych-image' style='position: relative; width: min(80vw, 80vh); height: min(80vw, 80vh);'>\n                \n                <div style='position: absolute; top: 40%; left: 30%; bottom: 40%; right: 30%;'><h1 style='font-size: 60px; color: green;'>Correct!</h1></div>\n                \n                <div class='jspsych-image' id='jspsych-image-0' data-choice='0' style='top: 0;     left: 0;'><img style=\"width: 100%; height: 100%;\" src='../static/human_exp_images/task_pos_count_2/00_0.png' class=''></img></div>\n                <div class='jspsych-image' id='jspsych-image-1' data-choice='1' style='top: 0;     right: 0;'><img style=\"width: 100%; height: 100%;\" src='../static/human_exp_images/task_pos_count_2/00_3.png' class='correct-choice'></img></div>\n                <div class='jspsych-image' id='jspsych-image-2' data-choice='2' style='bottom: 0;  left: 0;'><img style=\"width: 100%; height: 100%;\" src='../static/human_exp_images/task_pos_count_2/00_2.png' class=''></img></div>\n                <div class='jspsych-image' id='jspsych-image-3' data-choice='3' style='bottom: 0;  right: 0;'><img style=\"width: 100%; height: 100%;\" src='../static/human_exp_images/task_pos_count_2/00_1.png' class=''></img></div>\n\n        </div>","response":null,"trial_type":"html-keyboard-response","trial_index":72,"time_elapsed":416730,"internal_node_id":"0.0-14.0-3.0"},{"rt":null,"trial_type":"image-click","trial_index":73,"time_elapsed":417356,"internal_node_id":"0.0-14.0-0.1"},{"rt":10913,"response":3,"all_choices":["../static/human_exp_images/task_pos_count_2/01_2.png","../static/human_exp_images/task_pos_count_2/01_0.png","../static/human_exp_images/task_pos_count_2/01_1.png","../static/human_exp_images/task_pos_count_2/01_3.png"],"task":"response","correct_response":3,"shuffled_array":[2,0,1,3],"catch_trial":false,"trial_type":"image-click","trial_index":74,"time_elapsed":428272,"internal_node_id":"0.0-14.0-1.1","mouse_tracking_data":[{"x":975,"y":545,"t":0,"event":"mousemove"},{"x":975,"y":531,"t":13,"event":"mousemove"},{"x":975,"y":523,"t":30,"event":"mousemove"},{"x":975,"y":514,"t":46,"event":"mousemove"},{"x":975,"y":507,"t":62,"event":"mousemove"},{"x":975,"y":502,"t":79,"event":"mousemove"},{"x":975,"y":499,"t":95,"event":"mousemove"},{"x":975,"y":497,"t":113,"event":"mousemove"},{"x":975,"y":495,"t":129,"event":"mousemove"},{"x":975,"y":494,"t":147,"event":"mousemove"},{"x":975,"y":492,"t":168,"event":"mousemove"},{"x":975,"y":493,"t":10180,"event":"mousemove"},{"x":975,"y":495,"t":10183,"event":"mousemove"},{"x":975,"y":498,"t":10188,"event":"mousemove"},{"x":977,"y":504,"t":10206,"event":"mousemove"},{"x":980,"y":510,"t":10223,"event":"mousemove"},{"x":982,"y":514,"t":10238,"event":"mousemove"},{"x":984,"y":517,"t":10255,"event":"mousemove"},{"x":985,"y":519,"t":10272,"event":"mousemove"},{"x":989,"y":521,"t":10290,"event":"mousemove"},{"x":994,"y":526,"t":10306,"event":"mousemove"},{"x":1002,"y":533,"t":10322,"event":"mousemove"},{"x":1008,"y":539,"t":10338,"event":"mousemove"},{"x":1013,"y":546,"t":10355,"event":"mousemove"},{"x":1018,"y":553,"t":10371,"event":"mousemove"},{"x":1023,"y":560,"t":10389,"event":"mousemove"},{"x":1030,"y":568,"t":10406,"event":"mousemove"},{"x":1033,"y":574,"t":10423,"event":"mousemove"},{"x":1040,"y":584,"t":10439,"event":"mousemove"},{"x":1043,"y":592,"t":10455,"event":"mousemove"},{"x":1049,"y":601,"t":10473,"event":"mousemove"},{"x":1052,"y":606,"t":10489,"event":"mousemove"},{"x":1055,"y":611,"t":10505,"event":"mousemove"},{"x":1062,"y":620,"t":10521,"event":"mousemove"},{"x":1066,"y":626,"t":10539,"event":"mousemove"},{"x":1071,"y":632,"t":10555,"event":"mousemove"},{"x":1072,"y":635,"t":10572,"event":"mousemove"},{"x":1076,"y":638,"t":10589,"event":"mousemove"},{"x":1078,"y":640,"t":10605,"event":"mousemove"},{"x":1079,"y":644,"t":10622,"event":"mousemove"},{"x":1081,"y":645,"t":10639,"event":"mousemove"},{"x":1083,"y":649,"t":10656,"event":"mousemove"},{"x":1083,"y":650,"t":10673,"event":"mousemove"},{"x":1084,"y":652,"t":10689,"event":"mousemove"},{"x":1084,"y":654,"t":10705,"event":"mousemove"}],"mouse_tracking_targets":{},"correct":true},{"rt":2147,"stimulus":"<p>How confident are you about your choice ?</p>","slider_start":50,"response":75,"trial_type":"html-slider-response","trial_index":75,"time_elapsed":430421,"internal_node_id":"0.0-14.0-2.1"},{"rt":null,"stimulus":"\n        <div id='jspsych-image' style='position: relative; width: min(80vw, 80vh); height: min(80vw, 80vh);'>\n                \n                <div style='position: absolute; top: 40%; left: 30%; bottom: 40%; right: 30%;'><h1 style='font-size: 60px; color: green;'>Correct!</h1></div>\n                \n                <div class='jspsych-image' id='jspsych-image-0' data-choice='0' style='top: 0;     left: 0;'><img style=\"width: 100%; height: 100%;\" src='../static/human_exp_images/task_pos_count_2/01_2.png' class=''></img></div>\n                <div class='jspsych-image' id='jspsych-image-1' data-choice='1' style='top: 0;     right: 0;'><img style=\"width: 100%; height: 100%;\" src='../static/human_exp_images/task_pos_count_2/01_0.png' class=''></img></div>\n                <div class='jspsych-image' id='jspsych-image-2' data-choice='2' style='bottom: 0;  left: 0;'><img style=\"width: 100%; height: 100%;\" src='../static/human_exp_images/task_pos_count_2/01_1.png' class=''></img></div>\n                <div class='jspsych-image' id='jspsych-image-3' data-choice='3' style='bottom: 0;  right: 0;'><img style=\"width: 100%; height: 100%;\" src='../static/human_exp_images/task_pos_count_2/01_3.png' class='correct-choice'></img></div>\n\n        </div>","response":null,"trial_type":"html-keyboard-response","trial_index":76,"time_elapsed":431925,"internal_node_id":"0.0-14.0-3.1"},{"rt":null,"trial_type":"image-click","trial_index":77,"time_elapsed":432765,"internal_node_id":"0.0-14.0-0.2"},{"rt":12546,"response":0,"all_choices":["../static/human_exp_images/task_pos_count_2/02_3.png","../static/human_exp_images/task_pos_count_2/02_0.png","../static/human_exp_images/task_pos_count_2/02_1.png","../static/human_exp_images/task_pos_count_2/02_2.png"],"task":"response","correct_response":0,"shuffled_array":[3,0,1,2],"catch_trial":false,"trial_type":"image-click","trial_index":78,"time_elapsed":445313,"internal_node_id":"0.0-14.0-1.2","mouse_tracking_data":[{"x":947,"y":535,"t":2,"event":"mousemove"},{"x":953,"y":523,"t":14,"event":"mousemove"},{"x":954,"y":516,"t":30,"event":"mousemove"},{"x":956,"y":510,"t":46,"event":"mousemove"},{"x":961,"y":499,"t":64,"event":"mousemove"},{"x":961,"y":492,"t":80,"event":"mousemove"},{"x":963,"y":489,"t":97,"event":"mousemove"},{"x":963,"y":487,"t":113,"event":"mousemove"},{"x":963,"y":486,"t":130,"event":"mousemove"},{"x":963,"y":484,"t":11468,"event":"mousemove"},{"x":963,"y":482,"t":11474,"event":"mousemove"},{"x":961,"y":481,"t":11476,"event":"mousemove"},{"x":956,"y":479,"t":11483,"event":"mousemove"},{"x":954,"y":479,"t":11487,"event":"mousemove"},{"x":951,"y":477,"t":11492,"event":"mousemove"},{"x":946,"y":474,"t":11508,"event":"mousemove"},{"x":941,"y":472,"t":11525,"event":"mousemove"},{"x":937,"y":469,"t":11542,"event":"mousemove"},{"x":934,"y":467,"t":11558,"event":"mousemove"},{"x":932,"y":467,"t":11575,"event":"mousemove"},{"x":929,"y":464,"t":11592,"event":"mousemove"},{"x":913,"y":452,"t":11607,"event":"mousemove"},{"x":885,"y":429,"t":11624,"event":"mousemove"},{"x":845,"y":394,"t":11642,"event":"mousemove"},{"x":827,"y":381,"t":11658,"event":"mousemove"},{"x":816,"y":371,"t":11675,"event":"mousemove"},{"x":814,"y":367,"t":11691,"event":"mousemove"},{"x":810,"y":366,"t":11708,"event":"mousemove"},{"x":809,"y":364,"t":11724,"event":"mousemove"},{"x":807,"y":364,"t":11746,"event":"mousemove"},{"x":807,"y":362,"t":11755,"event":"mousemove"},{"x":805,"y":362,"t":11764,"event":"mousemove"},{"x":805,"y":361,"t":11783,"event":"mousemove"},{"x":804,"y":361,"t":11801,"event":"mousemove"},{"x":802,"y":357,"t":11810,"event":"mousemove"},{"x":795,"y":350,"t":11827,"event":"mousemove"},{"x":781,"y":337,"t":11845,"event":"mousemove"},{"x":769,"y":326,"t":11860,"event":"mousemove"},{"x":759,"y":314,"t":11877,"event":"mousemove"},{"x":754,"y":309,"t":11893,"event":"mousemove"},{"x":750,"y":308,"t":11911,"event":"mousemove"},{"x":749,"y":306,"t":11926,"event":"mousemove"},{"x":747,"y":304,"t":11944,"event":"mousemove"},{"x":745,"y":302,"t":11961,"event":"mousemove"},{"x":740,"y":296,"t":11978,"event":"mousemove"},{"x":732,"y":289,"t":11993,"event":"mousemove"},{"x":728,"y":284,"t":12010,"event":"mousemove"},{"x":725,"y":280,"t":12027,"event":"mousemove"},{"x":721,"y":275,"t":12044,"event":"mousemove"},{"x":720,"y":273,"t":12060,"event":"mousemove"},{"x":718,"y":272,"t":12077,"event":"mousemove"},{"x":716,"y":270,"t":12093,"event":"mousemove"},{"x":715,"y":270,"t":12111,"event":"mousemove"}],"mouse_tracking_targets":{},"correct":true},{"rt":2057,"stimulus":"<p>How confident are you about your choice ?</p>","slider_start":50,"response":70,"trial_type":"html-slider-response","trial_index":79,"time_elapsed":447372,"internal_node_id":"0.0-14.0-2.2"},{"rt":null,"stimulus":"\n        <div id='jspsych-image' style='position: relative; width: min(80vw, 80vh); height: min(80vw, 80vh);'>\n                \n                <div style='position: absolute; top: 40%; left: 30%; bottom: 40%; right: 30%;'><h1 style='font-size: 60px; color: green;'>Correct!</h1></div>\n                \n                <div class='jspsych-image' id='jspsych-image-0' data-choice='0' style='top: 0;     left: 0;'><img style=\"width: 100%; height: 100%;\" src='../static/human_exp_images/task_pos_count_2/02_3.png' class='correct-choice'></img></div>\n                <div class='jspsych-image' id='jspsych-image-1' data-choice='1' style='top: 0;     right: 0;'><img style=\"width: 100%; height: 100%;\" src='../static/human_exp_images/task_pos_count_2/02_0.png' class=''></img></div>\n                <div class='jspsych-image' id='jspsych-image-2' data-choice='2' style='bottom: 0;  left: 0;'><img style=\"width: 100%; height: 100%;\" src='../static/human_exp_images/task_pos_count_2/02_1.png' class=''></img></div>\n                <div class='jspsych-image' id='jspsych-image-3' data-choice='3' style='bottom: 0;  right: 0;'><img style=\"width: 100%; height: 100%;\" src='../static/human_exp_images/task_pos_count_2/02_2.png' class=''></img></div>\n\n        </div>","response":null,"trial_type":"html-keyboard-response","trial_index":80,"time_elapsed":448876,"internal_node_id":"0.0-14.0-3.2"},{"rt":2384,"stimulus":"<h1 style='font-size: 60px'>New Rule!</h1> <p>Press any key to begin.</p>","response":" ","trial_type":"html-keyboard-response","trial_index":81,"time_elapsed":451261,"internal_node_id":"0.0-15.0"},{"rt":null,"trial_type":"image-click","trial_index":82,"time_elapsed":452069,"internal_node_id":"0.0-16.0-0.0"},{"rt":15009,"response":2,"all_choices":["../static/human_exp_images/task_shape_rot_1/00_0.png","../static/human_exp_images/task_shape_rot_1/00_1.png","../static/human_exp_images/task_shape_rot_1/00_3.png","../static/human_exp_images/task_shape_rot_1/00_2.png"],"task":"response","correct_response":2,"shuffled_array":[0,1,3,2],"catch_trial":false,"trial_type":"image-click","trial_index":83,"time_elapsed":467079,"internal_node_id":"0.0-16.0-1.0","mouse_tracking_data":[{"x":965,"y":534,"t":1,"event":"mousemove"},{"x":965,"y":522,"t":16,"event":"mousemove"},{"x":963,"y":513,"t":32,"event":"mousemove"},{"x":962,"y":504,"t":49,"event":"mousemove"},{"x":962,"y":501,"t":65,"event":"mousemove"},{"x":962,"y":499,"t":83,"event":"mousemove"},{"x":960,"y":499,"t":496,"event":"mousemove"},{"x":959,"y":499,"t":13021,"event":"mousemove"},{"x":957,"y":499,"t":13038,"event":"mousemove"},{"x":955,"y":499,"t":13057,"event":"mousemove"},{"x":954,"y":499,"t":13073,"event":"mousemove"},{"x":952,"y":499,"t":13374,"event":"mousemove"},{"x":950,"y":498,"t":13383,"event":"mousemove"},{"x":947,"y":498,"t":13392,"event":"mousemove"},{"x":945,"y":498,"t":13397,"event":"mousemove"},{"x":943,"y":498,"t":13401,"event":"mousemove"},{"x":942,"y":498,"t":13409,"event":"mousemove"},{"x":938,"y":496,"t":13426,"event":"mousemove"},{"x":935,"y":496,"t":13443,"event":"mousemove"},{"x":928,"y":496,"t":13460,"event":"mousemove"},{"x":919,"y":496,"t":13477,"event":"mousemove"},{"x":913,"y":496,"t":13492,"event":"mousemove"},{"x":902,"y":496,"t":13510,"event":"mousemove"},{"x":894,"y":496,"t":13526,"event":"mousemove"},{"x":882,"y":496,"t":13543,"event":"mousemove"},{"x":870,"y":496,"t":13561,"event":"mousemove"},{"x":860,"y":496,"t":13576,"event":"mousemove"},{"x":851,"y":496,"t":13593,"event":"mousemove"},{"x":841,"y":496,"t":13609,"event":"mousemove"},{"x":834,"y":499,"t":13626,"event":"mousemove"},{"x":825,"y":503,"t":13643,"event":"mousemove"},{"x":819,"y":508,"t":13660,"event":"mousemove"},{"x":812,"y":511,"t":13676,"event":"mousemove"},{"x":807,"y":515,"t":13694,"event":"mousemove"},{"x":796,"y":527,"t":13710,"event":"mousemove"},{"x":793,"y":532,"t":13726,"event":"mousemove"},{"x":786,"y":544,"t":13743,"event":"mousemove"},{"x":781,"y":554,"t":13760,"event":"mousemove"},{"x":779,"y":559,"t":13777,"event":"mousemove"},{"x":779,"y":563,"t":13793,"event":"mousemove"},{"x":778,"y":563,"t":13872,"event":"mousemove"},{"x":778,"y":564,"t":13936,"event":"mousemove"},{"x":778,"y":566,"t":13954,"event":"mousemove"},{"x":778,"y":571,"t":13964,"event":"mousemove"},{"x":776,"y":573,"t":13984,"event":"mousemove"},{"x":776,"y":578,"t":13990,"event":"mousemove"},{"x":774,"y":585,"t":14006,"event":"mousemove"},{"x":774,"y":592,"t":14023,"event":"mousemove"},{"x":772,"y":597,"t":14039,"event":"mousemove"},{"x":771,"y":604,"t":14057,"event":"mousemove"},{"x":769,"y":610,"t":14074,"event":"mousemove"},{"x":769,"y":619,"t":14090,"event":"mousemove"},{"x":767,"y":624,"t":14107,"event":"mousemove"}],"mouse_tracking_targets":{},"correct":true},{"rt":2636,"stimulus":"<p>How confident are you about your choice ?</p>","slider_start":50,"response":77,"trial_type":"html-slider-response","trial_index":84,"time_elapsed":469719,"internal_node_id":"0.0-16.0-2.0"},{"rt":null,"stimulus":"\n        <div id='jspsych-image' style='position: relative; width: min(80vw, 80vh); height: min(80vw, 80vh);'>\n                \n                <div style='position: absolute; top: 40%; left: 30%; bottom: 40%; right: 30%;'><h1 style='font-size: 60px; color: green;'>Correct!</h1></div>\n                \n                <div class='jspsych-image' id='jspsych-image-0' data-choice='0' style='top: 0;     left: 0;'><img style=\"width: 100%; height: 100%;\" src='../static/human_exp_images/task_shape_rot_1/00_0.png' class=''></img></div>\n                <div class='jspsych-image' id='jspsych-image-1' data-choice='1' style='top: 0;     right: 0;'><img style=\"width: 100%; height: 100%;\" src='../static/human_exp_images/task_shape_rot_1/00_1.png' class=''></img></div>\n                <div class='jspsych-image' id='jspsych-image-2' data-choice='2' style='bottom: 0;  left: 0;'><img style=\"width: 100%; height: 100%;\" src='../static/human_exp_images/task_shape_rot_1/00_3.png' class='correct-choice'></img></div>\n                <div class='jspsych-image' id='jspsych-image-3' data-choice='3' style='bottom: 0;  right: 0;'><img style=\"width: 100%; height: 100%;\" src='../static/human_exp_images/task_shape_rot_1/00_2.png' class=''></img></div>\n\n        </div>","response":null,"trial_type":"html-keyboard-response","trial_index":85,"time_elapsed":471221,"internal_node_id":"0.0-16.0-3.0"},{"rt":null,"trial_type":"image-click","trial_index":86,"time_elapsed":473730,"internal_node_id":"0.0-16.0-0.1"},{"rt":13295,"response":1,"all_choices":["../static/human_exp_images/task_shape_rot_1/01_0.png","../static/human_exp_images/task_shape_rot_1/01_3.png","../static/human_exp_images/task_shape_rot_1/01_2.png","../static/human_exp_images/task_shape_rot_1/01_1.png"],"task":"response","correct_response":1,"shuffled_array":[0,3,2,1],"catch_trial":false,"trial_type":"image-click","trial_index":87,"time_elapsed":487027,"internal_node_id":"0.0-16.0-1.1","mouse_tracking_data":[{"x":948,"y":543,"t":1,"event":"mousemove"},{"x":948,"y":533,"t":15,"event":"mousemove"},{"x":948,"y":524,"t":31,"event":"mousemove"},{"x":948,"y":514,"t":49,"event":"mousemove"},{"x":948,"y":500,"t":64,"event":"mousemove"},{"x":948,"y":490,"t":81,"event":"mousemove"},{"x":948,"y":480,"t":98,"event":"mousemove"},{"x":948,"y":476,"t":115,"event":"mousemove"},{"x":948,"y":475,"t":132,"event":"mousemove"},{"x":948,"y":473,"t":148,"event":"mousemove"},{"x":948,"y":471,"t":171,"event":"mousemove"},{"x":948,"y":470,"t":243,"event":"mousemove"},{"x":948,"y":468,"t":343,"event":"mousemove"},{"x":948,"y":466,"t":1465,"event":"mousemove"},{"x":948,"y":465,"t":1664,"event":"mousemove"},{"x":948,"y":463,"t":2389,"event":"mousemove"},{"x":948,"y":462,"t":3647,"event":"mousemove"},{"x":946,"y":462,"t":12052,"event":"mousemove"},{"x":945,"y":462,"t":12117,"event":"mousemove"},{"x":945,"y":460,"t":12141,"event":"mousemove"},{"x":945,"y":455,"t":12150,"event":"mousemove"},{"x":945,"y":453,"t":12150,"event":"mousemove"},{"x":945,"y":450,"t":12158,"event":"mousemove"},{"x":945,"y":446,"t":12159,"event":"mousemove"},{"x":945,"y":443,"t":12167,"event":"mousemove"},{"x":945,"y":439,"t":12170,"event":"mousemove"},{"x":945,"y":436,"t":12175,"event":"mousemove"},{"x":945,"y":433,"t":12180,"event":"mousemove"},{"x":945,"y":429,"t":12185,"event":"mousemove"},{"x":945,"y":426,"t":12186,"event":"mousemove"},{"x":945,"y":422,"t":12194,"event":"mousemove"},{"x":945,"y":421,"t":12195,"event":"mousemove"},{"x":945,"y":416,"t":12203,"event":"mousemove"},{"x":945,"y":414,"t":12205,"event":"mousemove"},{"x":945,"y":410,"t":12213,"event":"mousemove"},{"x":945,"y":409,"t":12216,"event":"mousemove"},{"x":945,"y":407,"t":12221,"event":"mousemove"},{"x":945,"y":405,"t":12225,"event":"mousemove"},{"x":945,"y":402,"t":12230,"event":"mousemove"},{"x":945,"y":400,"t":12232,"event":"mousemove"},{"x":945,"y":397,"t":12241,"event":"mousemove"},{"x":945,"y":393,"t":12249,"event":"mousemove"},{"x":945,"y":392,"t":12251,"event":"mousemove"},{"x":945,"y":390,"t":12258,"event":"mousemove"},{"x":945,"y":388,"t":12262,"event":"mousemove"},{"x":945,"y":385,"t":12268,"event":"mousemove"},{"x":945,"y":381,"t":12277,"event":"mousemove"},{"x":945,"y":376,"t":12294,"event":"mousemove"},{"x":945,"y":369,"t":12310,"event":"mousemove"},{"x":945,"y":361,"t":12327,"event":"mousemove"},{"x":945,"y":352,"t":12344,"event":"mousemove"},{"x":945,"y":344,"t":12360,"event":"mousemove"},{"x":948,"y":337,"t":12377,"event":"mousemove"},{"x":952,"y":327,"t":12395,"event":"mousemove"},{"x":955,"y":320,"t":12411,"event":"mousemove"},{"x":960,"y":311,"t":12427,"event":"mousemove"},{"x":964,"y":303,"t":12443,"event":"mousemove"},{"x":969,"y":298,"t":12461,"event":"mousemove"},{"x":974,"y":293,"t":12478,"event":"mousemove"},{"x":979,"y":289,"t":12494,"event":"mousemove"},{"x":989,"y":282,"t":12511,"event":"mousemove"},{"x":1001,"y":277,"t":12527,"event":"mousemove"},{"x":1010,"y":270,"t":12544,"event":"mousemove"},{"x":1018,"y":265,"t":12560,"event":"mousemove"},{"x":1030,"y":258,"t":12578,"event":"mousemove"},{"x":1035,"y":255,"t":12594,"event":"mousemove"},{"x":1044,"y":250,"t":12611,"event":"mousemove"},{"x":1054,"y":243,"t":12626,"event":"mousemove"},{"x":1063,"y":238,"t":12644,"event":"mousemove"},{"x":1071,"y":231,"t":12660,"event":"mousemove"},{"x":1083,"y":224,"t":12677,"event":"mousemove"},{"x":1092,"y":219,"t":12695,"event":"mousemove"},{"x":1097,"y":216,"t":12711,"event":"mousemove"},{"x":1105,"y":211,"t":12727,"event":"mousemove"},{"x":1109,"y":209,"t":12744,"event":"mousemove"}],"mouse_tracking_targets":{},"correct":true},{"rt":3092,"stimulus":"<p>How confident are you about your choice ?</p>","slider_start":50,"response":69,"trial_type":"html-slider-response","trial_index":88,"time_elapsed":490120,"internal_node_id":"0.0-16.0-2.1"},{"rt":null,"stimulus":"\n        <div id='jspsych-image' style='position: relative; width: min(80vw, 80vh); height: min(80vw, 80vh);'>\n                \n                <div style='position: absolute; top: 40%; left: 30%; bottom: 40%; right: 30%;'><h1 style='font-size: 60px; color: green;'>Correct!</h1></div>\n                \n                <div class='jspsych-image' id='jspsych-image-0' data-choice='0' style='top: 0;     left: 0;'><img style=\"width: 100%; height: 100%;\" src='../static/human_exp_images/task_shape_rot_1/01_0.png' class=''></img></div>\n                <div class='jspsych-image' id='jspsych-image-1' data-choice='1' style='top: 0;     right: 0;'><img style=\"width: 100%; height: 100%;\" src='../static/human_exp_images/task_shape_rot_1/01_3.png' class='correct-choice'></img></div>\n                <div class='jspsych-image' id='jspsych-image-2' data-choice='2' style='bottom: 0;  left: 0;'><img style=\"width: 100%; height: 100%;\" src='../static/human_exp_images/task_shape_rot_1/01_2.png' class=''></img></div>\n                <div class='jspsych-image' id='jspsych-image-3' data-choice='3' style='bottom: 0;  right: 0;'><img style=\"width: 100%; height: 100%;\" src='../static/human_exp_images/task_shape_rot_1/01_1.png' class=''></img></div>\n\n        </div>","response":null,"trial_type":"html-keyboard-response","trial_index":89,"time_elapsed":491623,"internal_node_id":"0.0-16.0-3.1"},{"rt":null,"trial_type":"image-click","trial_index":90,"time_elapsed":492496,"internal_node_id":"0.0-16.0-0.2"},{"rt":10005,"response":1,"all_choices":["../static/human_exp_images/task_shape_rot_1/02_1.png","../static/human_exp_images/task_shape_rot_1/02_3.png","../static/human_exp_images/task_shape_rot_1/02_2.png","../static/human_exp_images/task_shape_rot_1/02_0.png"],"task":"response","correct_response":1,"shuffled_array":[1,3,2,0],"catch_trial":false,"trial_type":"image-click","trial_index":91,"time_elapsed":502503,"internal_node_id":"0.0-16.0-1.2","mouse_tracking_data":[{"x":973,"y":545,"t":1,"event":"mousemove"},{"x":973,"y":544,"t":2,"event":"mousemove"},{"x":973,"y":540,"t":16,"event":"mousemove"},{"x":971,"y":533,"t":33,"event":"mousemove"},{"x":971,"y":525,"t":49,"event":"mousemove"},{"x":971,"y":518,"t":66,"event":"mousemove"},{"x":971,"y":509,"t":82,"event":"mousemove"},{"x":971,"y":503,"t":100,"event":"mousemove"},{"x":971,"y":494,"t":115,"event":"mousemove"},{"x":971,"y":487,"t":132,"event":"mousemove"},{"x":971,"y":482,"t":149,"event":"mousemove"},{"x":971,"y":479,"t":166,"event":"mousemove"},{"x":971,"y":477,"t":183,"event":"mousemove"},{"x":971,"y":476,"t":603,"event":"mousemove"},{"x":971,"y":474,"t":1377,"event":"mousemove"},{"x":971,"y":473,"t":3510,"event":"mousemove"},{"x":970,"y":473,"t":7698,"event":"mousemove"},{"x":968,"y":473,"t":7771,"event":"mousemove"},{"x":966,"y":473,"t":7806,"event":"mousemove"},{"x":965,"y":473,"t":7843,"event":"mousemove"},{"x":963,"y":473,"t":7879,"event":"mousemove"},{"x":961,"y":473,"t":7926,"event":"mousemove"},{"x":959,"y":473,"t":7943,"event":"mousemove"},{"x":958,"y":473,"t":7999,"event":"mousemove"},{"x":956,"y":473,"t":8015,"event":"mousemove"},{"x":954,"y":473,"t":8044,"event":"mousemove"},{"x":953,"y":473,"t":8056,"event":"mousemove"},{"x":951,"y":473,"t":8061,"event":"mousemove"},{"x":949,"y":473,"t":8070,"event":"mousemove"},{"x":946,"y":473,"t":8087,"event":"mousemove"},{"x":944,"y":473,"t":8104,"event":"mousemove"},{"x":942,"y":473,"t":8120,"event":"mousemove"},{"x":941,"y":473,"t":8142,"event":"mousemove"},{"x":941,"y":471,"t":8223,"event":"mousemove"},{"x":941,"y":469,"t":8234,"event":"mousemove"},{"x":941,"y":467,"t":8243,"event":"mousemove"},{"x":941,"y":466,"t":8259,"event":"mousemove"},{"x":941,"y":462,"t":8277,"event":"mousemove"},{"x":941,"y":459,"t":8292,"event":"mousemove"},{"x":941,"y":450,"t":8309,"event":"mousemove"},{"x":941,"y":444,"t":8326,"event":"mousemove"},{"x":941,"y":440,"t":8343,"event":"mousemove"},{"x":941,"y":438,"t":8360,"event":"mousemove"},{"x":941,"y":435,"t":8376,"event":"mousemove"},{"x":941,"y":428,"t":8393,"event":"mousemove"},{"x":944,"y":420,"t":8409,"event":"mousemove"},{"x":951,"y":413,"t":8426,"event":"mousemove"},{"x":958,"y":403,"t":8442,"event":"mousemove"},{"x":965,"y":394,"t":8460,"event":"mousemove"},{"x":971,"y":387,"t":8476,"event":"mousemove"},{"x":975,"y":382,"t":8492,"event":"mousemove"},{"x":977,"y":380,"t":8510,"event":"mousemove"},{"x":980,"y":377,"t":8526,"event":"mousemove"},{"x":988,"y":370,"t":8543,"event":"mousemove"},{"x":994,"y":365,"t":8559,"event":"mousemove"},{"x":997,"y":360,"t":8577,"event":"mousemove"},{"x":999,"y":360,"t":8593,"event":"mousemove"},{"x":999,"y":358,"t":8609,"event":"mousemove"},{"x":1000,"y":356,"t":8627,"event":"mousemove"},{"x":1006,"y":348,"t":8643,"event":"mousemove"},{"x":1014,"y":338,"t":8659,"event":"mousemove"},{"x":1018,"y":331,"t"