[{"success":true,"timeout":false,"failed_images":[],"failed_audio":[],"failed_video":[],"trial_type":"preload","trial_index":0,"time_elapsed":14,"internal_node_id":"0.0-0.0"},{"rt":769,"stimulus":"<p style='font-size: 40px'>Welcome to the experiment.</p><p style='font-size: 30px'>Press any key to begin.</p>","response":" ","trial_type":"html-keyboard-response","trial_index":1,"time_elapsed":786,"internal_node_id":"0.0-1.0"},{"rt":1225,"stimulus":"\n    <p>In this experiment, 4 images will appear on the screen. 3 out of 4 images were generated with a certain rule while one image (the odd one out) does not respect this rule. Select the odd one out by clicking on the image.</p>\n    <p>Following your choice, you will be asked to rate how confident you were about your choice on a scale from 1 to 100. Then, you will receive feedback on the trial.</p>\n    <p>For each rule you will perform 20 trials. You will be notified at each rule change. </p>\n    <p> Press any button to continue </p>\n    <div style='margin: auto; position: relative; width: 400px; height: 400px;'>\n        <div style='position: absolute; top: 0;     left: 0; '><img src='../static/img/square.png'></img></div>\n        <div style='position: absolute; top: 0;     right: 0;'><img src='../static/img/square.png'></img></div>\n        <div style='position: absolute; bottom: 0;  left: 0; '><img src='../static/img/square.png'></img></div>\n        <div style='position: absolute; bottom: 0;  right: 0;'><img src='../static/img/square.png'></img></div>\n    </div>\n","response":" ","trial_type":"html-keyboard-response","trial_index":2,"time_elapsed":2014,"internal_node_id":"0.0-2.0"},{"rt":716,"stimulus":"<h1 style='font-size: 60px'>New Rule!</h1> <p>Press any key to begin.</p>","response":" ","trial_type":"html-keyboard-response","trial_index":3,"time_elapsed":4732,"internal_node_id":"0.0-3.0"},{"rt":962,"response":3,"all_choices":["../static/human_exp_images/task_shape/00_1.png","../static/human_exp_images/task_shape/00_3.png","../static/human_exp_images/task_shape/00_2.png","../static/human_exp_images/task_shape/00_0.png"],"task":"response","correct_response":1,"shuffled_array":[1,3,2,0],"trial_type":"image-click","trial_index":4,"time_elapsed":5699,"internal_node_id":"0.0-4.0-0.0","mouse_tracking_data":[{"x":929,"y":525,"t":381,"event":"mousemove"},{"x":930,"y":525,"t":446,"event":"mousemove"},{"x":939,"y":525,"t":453,"event":"mousemove"},{"x":943,"y":525,"t":456,"event":"mousemove"},{"x":957,"y":525,"t":472,"event":"mousemove"},{"x":984,"y":525,"t":488,"event":"mousemove"},{"x":996,"y":525,"t":504,"event":"mousemove"},{"x":1010,"y":525,"t":522,"event":"mousemove"},{"x":1025,"y":532,"t":538,"event":"mousemove"},{"x":1037,"y":539,"t":555,"event":"mousemove"},{"x":1051,"y":549,"t":572,"event":"mousemove"},{"x":1054,"y":556,"t":588,"event":"mousemove"},{"x":1063,"y":567,"t":605,"event":"mousemove"},{"x":1070,"y":577,"t":622,"event":"mousemove"},{"x":1075,"y":585,"t":638,"event":"mousemove"},{"x":1083,"y":592,"t":655,"event":"mousemove"},{"x":1092,"y":597,"t":671,"event":"mousemove"},{"x":1104,"y":602,"t":688,"event":"mousemove"},{"x":1111,"y":606,"t":705,"event":"mousemove"},{"x":1118,"y":609,"t":722,"event":"mousemove"},{"x":1123,"y":611,"t":738,"event":"mousemove"},{"x":1128,"y":614,"t":755,"event":"mousemove"},{"x":1136,"y":616,"t":771,"event":"mousemove"},{"x":1145,"y":618,"t":788,"event":"mousemove"},{"x":1157,"y":623,"t":805,"event":"mousemove"},{"x":1167,"y":626,"t":822,"event":"mousemove"},{"x":1174,"y":628,"t":839,"event":"mousemove"},{"x":1178,"y":630,"t":854,"event":"mousemove"},{"x":1179,"y":630,"t":872,"event":"mousemove"}],"mouse_tracking_targets":{},"correct":false},{"rt":1613,"stimulus":"<p>How confident are you about your choice ?</p>","slider_start":50,"response":50,"trial_type":"html-slider-response","trial_index":5,"time_elapsed":7314,"internal_node_id":"0.0-4.0-1.0"},{"rt":null,"stimulus":"\n        <div id='jspsych-image' style='position: relative; width: min(80vw, 80vh); height: min(80vw, 80vh);'>\n                \n                <div style='position: absolute; top: 40%; left: 30%; bottom: 40%; right: 30%;'><h1 style='font-size: 60px; color: red'>Wrong</h1></div>\n                \n                <div class='jspsych-image' id='jspsych-image-0' data-choice='0' style='top: 0;     left: 0;'><img style=\"max-width: 100%; max-height: 100%;\" src='../static/human_exp_images/task_shape/00_1.png' class=''></img></div>\n                <div class='jspsych-image' id='jspsych-image-1' data-choice='1' style='top: 0;     right: 0;'><img style=\"max-width: 100%; max-height: 100%;\" src='../static/human_exp_images/task_shape/00_3.png' class='correct-choice'></img></div>\n                <div class='jspsych-image' id='jspsych-image-2' data-choice='2' style='bottom: 0;  left: 0;'><img style=\"max-width: 100%; max-height: 100%;\" src='../static/human_exp_images/task_shape/00_2.png' class=''></img></div>\n                <div class='jspsych-image' id='jspsych-image-3' data-choice='3' style='bottom: 0;  right: 0;'><img style=\"max-width: 100%; max-height: 100%;\" src='../static/human_exp_images/task_shape/00_0.png' class='wrong-choice'></img></div>\n\n        </div>","response":null,"trial_type":"html-keyboard-response","trial_index":6,"time_elapsed":9818,"internal_node_id":"0.0-4.0-2.0"},{"rt":1102,"stimulus":"<p>You responded correctly on 0% of the trials.</p>\n    <p>Your average response time was NaNms.</p>\n    <p>Press any key to complete the experiment. Thank you!</p>","response":" ","trial_type":"html-keyboard-response","trial_index":7,"time_elapsed":10924,"internal_node_id":"0.0-5.0","interactions":"[]"}]