[{"success":true,"timeout":false,"failed_images":[],"failed_audio":[],"failed_video":[],"trial_type":"preload","trial_index":0,"time_elapsed":12,"internal_node_id":"0.0-0.0"},{"rt":748,"stimulus":"<p style='font-size: 40px'>Welcome to the experiment.</p><p style='font-size: 30px'>Press any key to begin.</p>","response":" ","trial_type":"html-keyboard-response","trial_index":1,"time_elapsed":760,"internal_node_id":"0.0-1.0"},{"rt":307,"stimulus":"\n    <p>In this experiment, 4 images will appear on the screen. 3 out of 4 images were generated with a certain rule while one image (the odd one out) does not respect this rule. Select the odd one out by clicking on the image.</p>\n    <p>Following your choice, you will be asked to rate how confident you were about your choice on a scale from 1 to 100. Then, you will receive feedback on the trial.</p>\n    <p>For each rule you will perform 20 trials. You will be notified at each rule change. </p>\n    <p> Press any button to continue </p>\n    <div style='margin: auto; position: relative; width: 400px; height: 400px;'>\n        <div style='position: absolute; top: 0;     left: 0; '><img src='../static/img/square.png'></img></div>\n        <div style='position: absolute; top: 0;     right: 0;'><img src='../static/img/square.png'></img></div>\n        <div style='position: absolute; bottom: 0;  left: 0; '><img src='../static/img/square.png'></img></div>\n        <div style='position: absolute; bottom: 0;  right: 0;'><img src='../static/img/square.png'></img></div>\n    </div>\n","response":" ","trial_type":"html-keyboard-response","trial_index":2,"time_elapsed":1069,"internal_node_id":"0.0-2.0"},{"rt":916,"stimulus":"<h1 style='font-size: 60px'>New Rule!</h1> <p>Press any key to begin.</p>","response":" ","trial_type":"html-keyboard-response","trial_index":3,"time_elapsed":3987,"internal_node_id":"0.0-3.0"},{"rt":992,"response":3,"all_choices":["../static/human_exp_images/task_shape/00_3.png","../static/human_exp_images/task_shape/00_0.png","../static/human_exp_images/task_shape/00_2.png","../static/human_exp_images/task_shape/00_1.png"],"task":"response","correct_response":0,"shuffled_array":[3,0,2,1],"trial_type":"image-click","trial_index":4,"time_elapsed":4983,"internal_node_id":"0.0-4.0-0.0","mouse_tracking_data":[{"x":899,"y":535,"t":517,"event":"mousemove"},{"x":899,"y":536,"t":519,"event":"mousemove"},{"x":899,"y":538,"t":529,"event":"mousemove"},{"x":899,"y":540,"t":530,"event":"mousemove"},{"x":909,"y":547,"t":546,"event":"mousemove"},{"x":929,"y":558,"t":563,"event":"mousemove"},{"x":941,"y":566,"t":580,"event":"mousemove"},{"x":954,"y":579,"t":597,"event":"mousemove"},{"x":962,"y":587,"t":613,"event":"mousemove"},{"x":972,"y":598,"t":630,"event":"mousemove"},{"x":996,"y":605,"t":647,"event":"mousemove"},{"x":1016,"y":609,"t":663,"event":"mousemove"},{"x":1034,"y":610,"t":680,"event":"mousemove"},{"x":1056,"y":612,"t":696,"event":"mousemove"},{"x":1070,"y":612,"t":714,"event":"mousemove"},{"x":1083,"y":612,"t":730,"event":"mousemove"},{"x":1094,"y":614,"t":747,"event":"mousemove"},{"x":1108,"y":616,"t":764,"event":"mousemove"},{"x":1115,"y":620,"t":780,"event":"mousemove"},{"x":1123,"y":621,"t":798,"event":"mousemove"},{"x":1127,"y":623,"t":814,"event":"mousemove"},{"x":1130,"y":625,"t":831,"event":"mousemove"},{"x":1132,"y":625,"t":848,"event":"mousemove"}],"mouse_tracking_targets":{},"correct":false},{"rt":1053,"stimulus":"<p>How confident are you about your choice ?</p>","slider_start":50,"response":50,"trial_type":"html-slider-response","trial_index":5,"time_elapsed":6038,"internal_node_id":"0.0-4.0-1.0"},{"rt":null,"stimulus":"\n        <div id='jspsych-image' style='position: relative; width: min(80vw, 80vh); height: min(80vw, 80vh);'>\n                \n                <div style='position: absolute; top: 40%; left: 30%; bottom: 40%; right: 30%;'><h1 style='font-size: 60px; color: red'>Wrong</h1></div>\n                \n                <div class='jspsych-image' id='jspsych-image-0' data-choice='0' style='top: 0;     left: 0;'><img style=\"max-width: 100%; max-height: 100%;\" src='../static/human_exp_images/task_shape/00_3.png' class='correct-choice'></img></div>\n                <div class='jspsych-image' id='jspsych-image-1' data-choice='1' style='top: 0;     right: 0;'><img style=\"max-width: 100%; max-height: 100%;\" src='../static/human_exp_images/task_shape/00_0.png' class=''></img></div>\n                <div class='jspsych-image' id='jspsych-image-2' data-choice='2' style='bottom: 0;  left: 0;'><img style=\"max-width: 100%; max-height: 100%;\" src='../static/human_exp_images/task_shape/00_2.png' class=''></img></div>\n                <div class='jspsych-image' id='jspsych-image-3' data-choice='3' style='bottom: 0;  right: 0;'><img style=\"max-width: 100%; max-height: 100%;\" src='../static/human_exp_images/task_shape/00_1.png' class='wrong-choice'></img></div>\n\n        </div>","response":null,"trial_type":"html-keyboard-response","trial_index":6,"time_elapsed":8544,"internal_node_id":"0.0-4.0-2.0"},{"rt":2156,"stimulus":"<p>You responded correctly on 0% of the trials.</p>\n    <p>Your average response time was NaNms.</p>\n    <p>Press any key to complete the experiment. Thank you!</p>","response":" ","trial_type":"html-keyboard-response","trial_index":7,"time_elapsed":10701,"internal_node_id":"0.0-5.0","interactions":"[]"}]