[{"success":true,"timeout":false,"failed_images":[],"failed_audio":[],"failed_video":[],"trial_type":"preload","trial_index":0,"time_elapsed":17,"internal_node_id":"0.0-0.0"},{"rt":828,"stimulus":"<p style='font-size: 40px'>Welcome to the experiment.</p><p style='font-size: 30px'>Press any key to begin.</p>","response":" ","trial_type":"html-keyboard-response","trial_index":1,"time_elapsed":846,"internal_node_id":"0.0-1.0"},{"rt":527,"stimulus":"\n    <p>In this experiment, 4 images will appear on the screen. 3 out of 4 images were generated with a certain rule while one image (the odd one out) does not respect this rule. Select the odd one out by clicking on the image.</p>\n    <p>Following your choice, you will be asked to rate how confident you were about your choice on a scale from 1 to 100. Then, you will receive feedback on the trial.</p>\n    <p>For each rule you will perform 20 trials. You will be notified at each rule change. </p>\n    <p> Press any button to continue </p>\n    <div style='margin: auto; position: relative; width: 400px; height: 400px;'>\n        <div style='position: absolute; top: 0;     left: 0; '><img src='../static/img/square.png'></img></div>\n        <div style='position: absolute; top: 0;     right: 0;'><img src='../static/img/square.png'></img></div>\n        <div style='position: absolute; bottom: 0;  left: 0; '><img src='../static/img/square.png'></img></div>\n        <div style='position: absolute; bottom: 0;  right: 0;'><img src='../static/img/square.png'></img></div>\n    </div>\n","response":" ","trial_type":"html-keyboard-response","trial_index":2,"time_elapsed":1376,"internal_node_id":"0.0-2.0"},{"rt":702,"stimulus":"<h1 style='font-size: 60px'>New Rule!</h1> <p>Press any key to begin.</p>","response":" ","trial_type":"html-keyboard-response","trial_index":3,"time_elapsed":4080,"internal_node_id":"0.0-3.0"},{"rt":740,"response":1,"all_choices":["../static/human_exp_images/task_shape/00_2.png","../static/human_exp_images/task_shape/00_3.png","../static/human_exp_images/task_shape/00_1.png","../static/human_exp_images/task_shape/00_0.png"],"task":"response","correct_response":1,"shuffled_array":[2,3,1,0],"trial_type":"image-click","trial_index":4,"time_elapsed":4826,"internal_node_id":"0.0-4.0-0.0","mouse_tracking_data":[{"x":1025,"y":442,"t":312,"event":"mousemove"},{"x":1031,"y":442,"t":319,"event":"mousemove"},{"x":1035,"y":442,"t":321,"event":"mousemove"},{"x":1042,"y":442,"t":327,"event":"mousemove"},{"x":1046,"y":442,"t":333,"event":"mousemove"},{"x":1070,"y":425,"t":347,"event":"mousemove"},{"x":1091,"y":403,"t":362,"event":"mousemove"},{"x":1103,"y":381,"t":379,"event":"mousemove"},{"x":1119,"y":347,"t":395,"event":"mousemove"},{"x":1135,"y":320,"t":413,"event":"mousemove"},{"x":1156,"y":282,"t":429,"event":"mousemove"},{"x":1176,"y":242,"t":445,"event":"mousemove"},{"x":1198,"y":215,"t":463,"event":"mousemove"},{"x":1210,"y":201,"t":479,"event":"mousemove"},{"x":1218,"y":191,"t":496,"event":"mousemove"},{"x":1225,"y":186,"t":513,"event":"mousemove"},{"x":1228,"y":183,"t":529,"event":"mousemove"},{"x":1230,"y":181,"t":565,"event":"mousemove"},{"x":1239,"y":170,"t":580,"event":"mousemove"},{"x":1255,"y":153,"t":596,"event":"mousemove"},{"x":1258,"y":148,"t":613,"event":"mousemove"}],"mouse_tracking_targets":{},"correct":true},{"rt":1258,"stimulus":"<p>How confident are you about your choice ?</p>","slider_start":50,"response":50,"trial_type":"html-slider-response","trial_index":5,"time_elapsed":6088,"internal_node_id":"0.0-4.0-1.0"},{"rt":null,"stimulus":"\n        <div id='jspsych-image' style='position: relative; width: min(80vw, 80vh); height: min(80vw, 80vh);'>\n                \n                <div style='position: absolute; top: 40%; left: 30%; bottom: 40%; right: 30%;'><h1 style='font-size: 60px; color: green;'>Correct!</h1></div>\n                \n                <div class='jspsych-image' id='jspsych-image-0' data-choice='0' style='top: 0;     left: 0;'><img style=\"max-width: 100%; max-height: 100%;\" src='../static/human_exp_images/task_shape/00_2.png' class=''></img></div>\n                <div class='jspsych-image' id='jspsych-image-1' data-choice='1' style='top: 0;     right: 0;'><img style=\"max-width: 100%; max-height: 100%;\" src='../static/human_exp_images/task_shape/00_3.png' class='correct-choice'></img></div>\n                <div class='jspsych-image' id='jspsych-image-2' data-choice='2' style='bottom: 0;  left: 0;'><img style=\"max-width: 100%; max-height: 100%;\" src='../static/human_exp_images/task_shape/00_1.png' class=''></img></div>\n                <div class='jspsych-image' id='jspsych-image-3' data-choice='3' style='bottom: 0;  right: 0;'><img style=\"max-width: 100%; max-height: 100%;\" src='../static/human_exp_images/task_shape/00_0.png' class=''></img></div>\n\n        </div>","response":null,"trial_type":"html-keyboard-response","trial_index":6,"time_elapsed":7592,"internal_node_id":"0.0-4.0-2.0"},{"rt":999,"stimulus":"<p>You responded correctly on 100% of the trials.</p>\n    <p>Your average response time was 740ms.</p>\n    <p>Press any key to complete the experiment. Thank you!</p>","response":" ","trial_type":"html-keyboard-response","trial_index":7,"time_elapsed":8594,"internal_node_id":"0.0-5.0","interactions":"[{\"event\":\"focus\",\"trial\":0,\"time\":0}]"}]