[{"success":true,"timeout":false,"failed_images":[],"failed_audio":[],"failed_video":[],"trial_type":"preload","trial_index":0,"time_elapsed":76,"internal_node_id":"0.0-0.0"},{"rt":1390,"stimulus":"<p style='font-size: 40px'>Welcome to the experiment.</p><p style='font-size: 30px'>Press any key to begin.</p>","response":" ","trial_type":"html-keyboard-response","trial_index":1,"time_elapsed":1468,"internal_node_id":"0.0-1.0"},{"rt":1277,"stimulus":"\n    <p>In this experiment, 4 images will appear on the screen. 3 out of 4 images were generated with a certain rule while one image (the odd one out) does not respect this rule. Select the odd one out by clicking on the image.</p>\n    <p>Following your choice, you will be asked to rate how confident you were about your choice on a scale from 1 to 100. Then, you will receive feedback on the trial.</p>\n    <p>For each rule you will perform 20 trials. You will be notified at each rule change. </p>\n    <p> Press any button to continue </p>\n    <div style='margin: auto; position: relative; width: 400px; height: 400px;'>\n        <div style='position: absolute; top: 0;     left: 0; '><img src='../static/img/square.png'></img></div>\n        <div style='position: absolute; top: 0;     right: 0;'><img src='../static/img/square.png'></img></div>\n        <div style='position: absolute; bottom: 0;  left: 0; '><img src='../static/img/square.png'></img></div>\n        <div style='position: absolute; bottom: 0;  right: 0;'><img src='../static/img/square.png'></img></div>\n    </div>\n","response":" ","trial_type":"html-keyboard-response","trial_index":2,"time_elapsed":2746,"internal_node_id":"0.0-2.0"},{"rt":1276,"stimulus":"<h1 style='font-size: 60px'>New Rule!</h1> <p>Press any key to begin.</p>","response":" ","trial_type":"html-keyboard-response","trial_index":3,"time_elapsed":6025,"internal_node_id":"0.0-3.0"},{"rt":null,"trial_type":"image-click","trial_index":4,"time_elapsed":6829,"internal_node_id":"0.0-4.0-0.0"},{"rt":1210,"response":3,"all_choices":["../static/human_exp_images/task_pos/00_3.png","../static/human_exp_images/task_pos/00_0.png","../static/human_exp_images/task_pos/00_2.png","../static/human_exp_images/task_pos/00_1.png"],"task":"response","correct_response":0,"shuffled_array":[3,0,2,1],"trial_type":"image-click","trial_index":5,"time_elapsed":8043,"internal_node_id":"0.0-4.0-1.0","mouse_tracking_data":[{"x":917,"y":500,"t":1,"event":"mousemove"},{"x":908,"y":492,"t":12,"event":"mousemove"},{"x":901,"y":481,"t":28,"event":"mousemove"},{"x":896,"y":477,"t":44,"event":"mousemove"},{"x":895,"y":477,"t":61,"event":"mousemove"},{"x":895,"y":476,"t":78,"event":"mousemove"},{"x":893,"y":474,"t":122,"event":"mousemove"},{"x":893,"y":472,"t":129,"event":"mousemove"},{"x":885,"y":463,"t":144,"event":"mousemove"},{"x":880,"y":457,"t":162,"event":"mousemove"},{"x":879,"y":454,"t":178,"event":"mousemove"},{"x":877,"y":452,"t":195,"event":"mousemove"},{"x":880,"y":452,"t":570,"event":"mousemove"},{"x":885,"y":452,"t":576,"event":"mousemove"},{"x":886,"y":454,"t":578,"event":"mousemove"},{"x":893,"y":458,"t":586,"event":"mousemove"},{"x":894,"y":458,"t":590,"event":"mousemove"},{"x":898,"y":461,"t":594,"event":"mousemove"},{"x":903,"y":464,"t":597,"event":"mousemove"},{"x":913,"y":469,"t":612,"event":"mousemove"},{"x":919,"y":472,"t":630,"event":"mousemove"},{"x":922,"y":474,"t":645,"event":"mousemove"},{"x":922,"y":476,"t":663,"event":"mousemove"},{"x":923,"y":476,"t":679,"event":"mousemove"},{"x":925,"y":477,"t":696,"event":"mousemove"},{"x":929,"y":479,"t":713,"event":"mousemove"},{"x":933,"y":481,"t":729,"event":"mousemove"},{"x":936,"y":483,"t":747,"event":"mousemove"},{"x":942,"y":486,"t":763,"event":"mousemove"},{"x":952,"y":491,"t":780,"event":"mousemove"},{"x":963,"y":496,"t":797,"event":"mousemove"},{"x":974,"y":502,"t":814,"event":"mousemove"},{"x":993,"y":516,"t":829,"event":"mousemove"},{"x":1009,"y":529,"t":846,"event":"mousemove"},{"x":1019,"y":538,"t":863,"event":"mousemove"},{"x":1032,"y":549,"t":879,"event":"mousemove"},{"x":1046,"y":559,"t":895,"event":"mousemove"},{"x":1055,"y":567,"t":913,"event":"mousemove"},{"x":1063,"y":573,"t":930,"event":"mousemove"},{"x":1071,"y":578,"t":946,"event":"mousemove"},{"x":1077,"y":583,"t":963,"event":"mousemove"},{"x":1079,"y":584,"t":979,"event":"mousemove"},{"x":1084,"y":586,"t":997,"event":"mousemove"},{"x":1085,"y":586,"t":1013,"event":"mousemove"},{"x":1086,"y":586,"t":1029,"event":"mousemove"}],"mouse_tracking_targets":{},"correct":false},{"rt":2412,"stimulus":"<p>How confident are you about your choice ?</p>","slider_start":50,"response":76,"trial_type":"html-slider-response","trial_index":6,"time_elapsed":10460,"internal_node_id":"0.0-4.0-2.0"},{"rt":null,"stimulus":"\n        <div id='jspsych-image' style='position: relative; width: min(80vw, 80vh); height: min(80vw, 80vh);'>\n                \n                <div style='position: absolute; top: 40%; left: 30%; bottom: 40%; right: 30%;'><h1 style='font-size: 60px; color: red'>Wrong</h1></div>\n                \n                <div class='jspsych-image' id='jspsych-image-0' data-choice='0' style='top: 0;     left: 0;'><img style=\"max-width: 100%; max-height: 100%;\" src='../static/human_exp_images/task_pos/00_3.png' class='correct-choice'></img></div>\n                <div class='jspsych-image' id='jspsych-image-1' data-choice='1' style='top: 0;     right: 0;'><img style=\"max-width: 100%; max-height: 100%;\" src='../static/human_exp_images/task_pos/00_0.png' class=''></img></div>\n                <div class='jspsych-image' id='jspsych-image-2' data-choice='2' style='bottom: 0;  left: 0;'><img style=\"max-width: 100%; max-height: 100%;\" src='../static/human_exp_images/task_pos/00_2.png' class=''></img></div>\n                <div class='jspsych-image' id='jspsych-image-3' data-choice='3' style='bottom: 0;  right: 0;'><img style=\"max-width: 100%; max-height: 100%;\" src='../static/human_exp_images/task_pos/00_1.png' class='wrong-choice'></img></div>\n\n        </div>","response":null,"trial_type":"html-keyboard-response","trial_index":7,"time_elapsed":12964,"internal_node_id":"0.0-4.0-3.0"},{"rt":null,"trial_type":"image-click","trial_index":8,"time_elapsed":12967,"internal_node_id":"0.0-4.0-0.1"},{"rt":3914,"response":2,"all_choices":["../static/human_exp_images/task_pos/01_1.png","../static/human_exp_images/task_pos/01_0.png","../static/human_exp_images/task_pos/01_3.png","../static/human_exp_images/task_pos/01_2.png"],"task":"response","correct_response":2,"shuffled_array":[1,0,3,2],"trial_type":"image-click","trial_index":9,"time_elapsed":16882,"internal_node_id":"0.0-4.0-1.1","mouse_tracking_data":[{"x":895,"y":422,"t":1086,"event":"mousemove"},{"x":894,"y":422,"t":1094,"event":"mousemove"},{"x":892,"y":422,"t":1103,"event":"mousemove"},{"x":890,"y":422,"t":1122,"event":"mousemove"},{"x":890,"y":420,"t":1403,"event":"mousemove"},{"x":890,"y":419,"t":1430,"event":"mousemove"},{"x":890,"y":417,"t":1531,"event":"mousemove"},{"x":890,"y":415,"t":1549,"event":"mousemove"},{"x":890,"y":413,"t":1558,"event":"mousemove"},{"x":890,"y":411,"t":1567,"event":"mousemove"},{"x":890,"y":409,"t":1570,"event":"mousemove"},{"x":890,"y":404,"t":1576,"event":"mousemove"},{"x":890,"y":402,"t":1581,"event":"mousemove"},{"x":890,"y":398,"t":1585,"event":"mousemove"},{"x":890,"y":397,"t":1586,"event":"mousemove"},{"x":892,"y":392,"t":1602,"event":"mousemove"},{"x":895,"y":386,"t":1619,"event":"mousemove"},{"x":897,"y":382,"t":1635,"event":"mousemove"},{"x":897,"y":381,"t":1653,"event":"mousemove"},{"x":894,"y":381,"t":2042,"event":"mousemove"},{"x":892,"y":383,"t":2044,"event":"mousemove"},{"x":886,"y":391,"t":2059,"event":"mousemove"},{"x":882,"y":394,"t":2077,"event":"mousemove"},{"x":880,"y":399,"t":2093,"event":"mousemove"},{"x":878,"y":401,"t":2110,"event":"mousemove"},{"x":876,"y":402,"t":2126,"event":"mousemove"},{"x":874,"y":402,"t":3531,"event":"mousemove"},{"x":871,"y":402,"t":3533,"event":"mousemove"},{"x":867,"y":402,"t":3540,"event":"mousemove"},{"x":866,"y":402,"t":3544,"event":"mousemove"},{"x":863,"y":402,"t":3548,"event":"mousemove"},{"x":862,"y":402,"t":3550,"event":"mousemove"},{"x":855,"y":403,"t":3565,"event":"mousemove"},{"x":840,"y":414,"t":3582,"event":"mousemove"},{"x":824,"y":427,"t":3599,"event":"mousemove"},{"x":809,"y":440,"t":3616,"event":"mousemove"},{"x":794,"y":452,"t":3632,"event":"mousemove"},{"x":783,"y":459,"t":3650,"event":"mousemove"},{"x":776,"y":466,"t":3665,"event":"mousemove"},{"x":761,"y":477,"t":3682,"event":"mousemove"},{"x":743,"y":495,"t":3699,"event":"mousemove"},{"x":725,"y":514,"t":3716,"event":"mousemove"},{"x":712,"y":529,"t":3732,"event":"mousemove"},{"x":707,"y":535,"t":3749,"event":"mousemove"},{"x":688,"y":557,"t":3766,"event":"mousemove"},{"x":668,"y":578,"t":3782,"event":"mousemove"},{"x":655,"y":589,"t":3799,"event":"mousemove"},{"x":650,"y":597,"t":3816,"event":"mousemove"},{"x":646,"y":599,"t":3832,"event":"mousemove"}],"mouse_tracking_targets":{},"correct":true},{"rt":2634,"stimulus":"<p>How confident are you about your choice ?</p>","slider_start":50,"response":77,"trial_type":"html-slider-response","trial_index":10,"time_elapsed":19518,"internal_node_id":"0.0-4.0-2.1"},{"rt":null,"stimulus":"\n        <div id='jspsych-image' style='position: relative; width: min(80vw, 80vh); height: min(80vw, 80vh);'>\n                \n                <div style='position: absolute; top: 40%; left: 30%; bottom: 40%; right: 30%;'><h1 style='font-size: 60px; color: green;'>Correct!</h1></div>\n                \n                <div class='jspsych-image' id='jspsych-image-0' data-choice='0' style='top: 0;     left: 0;'><img style=\"max-width: 100%; max-height: 100%;\" src='../static/human_exp_images/task_pos/01_1.png' class=''></img></div>\n                <div class='jspsych-image' id='jspsych-image-1' data-choice='1' style='top: 0;     right: 0;'><img style=\"max-width: 100%; max-height: 100%;\" src='../static/human_exp_images/task_pos/01_0.png' class=''></img></div>\n                <div class='jspsych-image' id='jspsych-image-2' data-choice='2' style='bottom: 0;  left: 0;'><img style=\"max-width: 100%; max-height: 100%;\" src='../static/human_exp_images/task_pos/01_3.png' class='correct-choice'></img></div>\n                <div class='jspsych-image' id='jspsych-image-3' data-choice='3' style='bottom: 0;  right: 0;'><img style=\"max-width: 100%; max-height: 100%;\" src='../static/human_exp_images/task_pos/01_2.png' class=''></img></div>\n\n        </div>","response":null,"trial_type":"html-keyboard-response","trial_index":11,"time_elapsed":21020,"internal_node_id":"0.0-4.0-3.1"},{"rt":null,"trial_type":"image-click","trial_index":12,"time_elapsed":21812,"internal_node_id":"0.0-4.0-0.2"},{"rt":8365,"response":2,"all_choices":["../static/human_exp_images/task_pos/02_2.png","../static/human_exp_images/task_pos/02_0.png","../static/human_exp_images/task_pos/02_3.png","../static/human_exp_images/task_pos/02_1.png"],"task":"response","correct_response":2,"shuffled_array":[2,0,3,1],"trial_type":"image-click","trial_index":13,"time_elapsed":30179,"internal_node_id":"0.0-4.0-1.2","mouse_tracking_data":[{"x":959,"y":477,"t":1,"event":"mousemove"},{"x":948,"y":466,"t":15,"event":"mousemove"},{"x":937,"y":455,"t":32,"event":"mousemove"},{"x":932,"y":450,"t":49,"event":"mousemove"},{"x":926,"y":446,"t":65,"event":"mousemove"},{"x":919,"y":440,"t":82,"event":"mousemove"},{"x":913,"y":435,"t":99,"event":"mousemove"},{"x":904,"y":426,"t":116,"event":"mousemove"},{"x":901,"y":424,"t":132,"event":"mousemove"},{"x":897,"y":422,"t":149,"event":"mousemove"},{"x":897,"y":420,"t":165,"event":"mousemove"},{"x":895,"y":420,"t":182,"event":"mousemove"},{"x":893,"y":420,"t":248,"event":"mousemove"},{"x":893,"y":419,"t":6186,"event":"mousemove"},{"x":893,"y":417,"t":6198,"event":"mousemove"},{"x":893,"y":415,"t":6226,"event":"mousemove"},{"x":893,"y":414,"t":6244,"event":"mousemove"},{"x":890,"y":414,"t":8001,"event":"mousemove"},{"x":888,"y":414,"t":8004,"event":"mousemove"},{"x":886,"y":414,"t":8011,"event":"mousemove"},{"x":883,"y":417,"t":8014,"event":"mousemove"},{"x":879,"y":422,"t":8019,"event":"mousemove"},{"x":875,"y":424,"t":8020,"event":"mousemove"},{"x":864,"y":435,"t":8036,"event":"mousemove"},{"x":838,"y":461,"t":8054,"event":"mousemove"},{"x":816,"y":481,"t":8070,"event":"mousemove"},{"x":795,"y":494,"t":8086,"event":"mousemove"},{"x":777,"y":507,"t":8102,"event":"mousemove"},{"x":769,"y":513,"t":8120,"event":"mousemove"},{"x":757,"y":524,"t":8137,"event":"mousemove"},{"x":749,"y":531,"t":8153,"event":"mousemove"},{"x":744,"y":535,"t":8170,"event":"mousemove"},{"x":737,"y":542,"t":8187,"event":"mousemove"},{"x":732,"y":545,"t":8203,"event":"mousemove"},{"x":729,"y":546,"t":8221,"event":"mousemove"},{"x":729,"y":548,"t":8236,"event":"mousemove"},{"x":727,"y":548,"t":8264,"event":"mousemove"}],"mouse_tracking_targets":{},"correct":true},{"rt":2140,"stimulus":"<p>How confident are you about your choice ?</p>","slider_start":50,"response":83,"trial_type":"html-slider-response","trial_index":14,"time_elapsed":32321,"internal_node_id":"0.0-4.0-2.2"},{"rt":null,"stimulus":"\n        <div id='jspsych-image' style='position: relative; width: min(80vw, 80vh); height: min(80vw, 80vh);'>\n                \n                <div style='position: absolute; top: 40%; left: 30%; bottom: 40%; right: 30%;'><h1 style='font-size: 60px; color: green;'>Correct!</h1></div>\n                \n                <div class='jspsych-image' id='jspsych-image-0' data-choice='0' style='top: 0;     left: 0;'><img style=\"max-width: 100%; max-height: 100%;\" src='../static/human_exp_images/task_pos/02_2.png' class=''></img></div>\n                <div class='jspsych-image' id='jspsych-image-1' data-choice='1' style='top: 0;     right: 0;'><img style=\"max-width: 100%; max-height: 100%;\" src='../static/human_exp_images/task_pos/02_0.png' class=''></img></div>\n                <div class='jspsych-image' id='jspsych-image-2' data-choice='2' style='bottom: 0;  left: 0;'><img style=\"max-width: 100%; max-height: 100%;\" src='../static/human_exp_images/task_pos/02_3.png' class='correct-choice'></img></div>\n                <div class='jspsych-image' id='jspsych-image-3' data-choice='3' style='bottom: 0;  right: 0;'><img style=\"max-width: 100%; max-height: 100%;\" src='../static/human_exp_images/task_pos/02_1.png' class=''></img></div>\n\n        </div>","response":null,"trial_type":"html-keyboard-response","trial_index":15,"time_elapsed":33825,"internal_node_id":"0.0-4.0-3.2"},{"rt":5918,"stimulus":"<p>You responded correctly on 67% of the trials.</p>\n    <p>Your average response time was 6140ms.</p>\n    <p>Press any key to complete the experiment. Thank you!</p>","response":" ","trial_type":"html-keyboard-response","trial_index":16,"time_elapsed":39744,"internal_node_id":"0.0-5.0","interactions":"[{\"event\":\"focus\",\"trial\":0,\"time\":1}]"}]