[{"success":true,"timeout":false,"failed_images":[],"failed_audio":[],"failed_video":[],"trial_type":"preload","trial_index":0,"time_elapsed":13,"internal_node_id":"0.0-0.0"},{"rt":752,"stimulus":"<p style='font-size: 40px'>Welcome to the experiment.</p><p style='font-size: 30px'>Press any key to begin.</p>","response":" ","trial_type":"html-keyboard-response","trial_index":1,"time_elapsed":764,"internal_node_id":"0.0-1.0"},{"rt":329,"stimulus":"\n    <p>In this experiment, 4 images will appear on the screen. 3 out of 4 images were generated with a certain rule while one image (the odd one out) does not respect this rule. Select the odd one out by clicking on the image.</p>\n    <p>Following your choice, you will be asked to rate how confident you were about your choice on a scale from 1 to 100. Then, you will receive feedback on the trial.</p>\n    <p>For each rule you will perform 20 trials. You will be notified at each rule change. </p>\n    <p> Press any button to continue </p>\n    <div style='margin: auto; position: relative; width: 400px; height: 400px;'>\n        <div style='position: absolute; top: 0;     left: 0; '><img src='../static/img/square.png'></img></div>\n        <div style='position: absolute; top: 0;     right: 0;'><img src='../static/img/square.png'></img></div>\n        <div style='position: absolute; bottom: 0;  left: 0; '><img src='../static/img/square.png'></img></div>\n        <div style='position: absolute; bottom: 0;  right: 0;'><img src='../static/img/square.png'></img></div>\n    </div>\n","response":" ","trial_type":"html-keyboard-response","trial_index":2,"time_elapsed":1098,"internal_node_id":"0.0-2.0"},{"rt":194,"stimulus":"<h1 style='font-size: 60px'>New Rule!</h1> <p>Press any key to begin.</p>","response":" ","trial_type":"html-keyboard-response","trial_index":3,"time_elapsed":3295,"internal_node_id":"0.0-3.0"},{"rt":813,"response":3,"all_choices":["../static/human_exp_images/task_shape/00_3.png","../static/human_exp_images/task_shape/00_1.png","../static/human_exp_images/task_shape/00_2.png","../static/human_exp_images/task_shape/00_0.png"],"task":"response","correct_response":0,"shuffled_array":[3,1,2,0],"trial_type":"image-click","trial_index":4,"time_elapsed":4110,"internal_node_id":"0.0-4.0-0.0","mouse_tracking_data":[{"x":943,"y":644,"t":388,"event":"mousemove"},{"x":955,"y":644,"t":392,"event":"mousemove"},{"x":961,"y":644,"t":397,"event":"mousemove"},{"x":980,"y":644,"t":400,"event":"mousemove"},{"x":993,"y":644,"t":400,"event":"mousemove"},{"x":1029,"y":644,"t":416,"event":"mousemove"},{"x":1072,"y":641,"t":434,"event":"mousemove"},{"x":1100,"y":641,"t":449,"event":"mousemove"},{"x":1120,"y":641,"t":466,"event":"mousemove"},{"x":1141,"y":641,"t":482,"event":"mousemove"},{"x":1155,"y":641,"t":499,"event":"mousemove"},{"x":1161,"y":641,"t":517,"event":"mousemove"},{"x":1170,"y":641,"t":533,"event":"mousemove"},{"x":1173,"y":641,"t":550,"event":"mousemove"},{"x":1180,"y":638,"t":566,"event":"mousemove"},{"x":1201,"y":629,"t":583,"event":"mousemove"},{"x":1209,"y":628,"t":600,"event":"mousemove"},{"x":1220,"y":624,"t":617,"event":"mousemove"},{"x":1221,"y":624,"t":633,"event":"mousemove"}],"mouse_tracking_targets":{},"correct":false},{"rt":864,"stimulus":"<p>How confident are you about your choice ?</p>","slider_start":50,"response":50,"trial_type":"html-slider-response","trial_index":5,"time_elapsed":4976,"internal_node_id":"0.0-4.0-1.0"},{"rt":null,"stimulus":"\n        <div id='jspsych-image' style='position: relative; width: min(80vw, 80vh); height: min(80vw, 80vh);'>\n                \n                <div style='position: absolute; top: 40%; left: 30%; bottom: 40%; right: 30%;'><h1 style='font-size: 60px; color: red'>Wrong</h1></div>\n                \n                <div class='jspsych-image' id='jspsych-image-0' data-choice='0' style='top: 0;     left: 0;'><img style=\"max-width: 100%; max-height: 100%;\" src='../static/human_exp_images/task_shape/00_3.png' class='correct-choice'></img></div>\n                <div class='jspsych-image' id='jspsych-image-1' data-choice='1' style='top: 0;     right: 0;'><img style=\"max-width: 100%; max-height: 100%;\" src='../static/human_exp_images/task_shape/00_1.png' class=''></img></div>\n                <div class='jspsych-image' id='jspsych-image-2' data-choice='2' style='bottom: 0;  left: 0;'><img style=\"max-width: 100%; max-height: 100%;\" src='../static/human_exp_images/task_shape/00_2.png' class=''></img></div>\n                <div class='jspsych-image' id='jspsych-image-3' data-choice='3' style='bottom: 0;  right: 0;'><img style=\"max-width: 100%; max-height: 100%;\" src='../static/human_exp_images/task_shape/00_0.png' class='wrong-choice'></img></div>\n\n        </div>","response":null,"trial_type":"html-keyboard-response","trial_index":6,"time_elapsed":7478,"internal_node_id":"0.0-4.0-2.0"},{"rt":1601,"stimulus":"<p>You responded correctly on 0% of the trials.</p>\n    <p>Your average response time was NaNms.</p>\n    <p>Press any key to complete the experiment. Thank you!</p>","response":" ","trial_type":"html-keyboard-response","trial_index":7,"time_elapsed":9082,"internal_node_id":"0.0-5.0","interactions":"[]"}]