[{"success":true,"timeout":false,"failed_images":[],"failed_audio":[],"failed_video":[],"trial_type":"preload","trial_index":0,"time_elapsed":13,"internal_node_id":"0.0-0.0"},{"rt":927,"stimulus":"<p style='font-size: 40px'>Welcome to the experiment.</p><p style='font-size: 30px'>Press any key to begin.</p>","response":" ","trial_type":"html-keyboard-response","trial_index":1,"time_elapsed":942,"internal_node_id":"0.0-1.0"},{"rt":6995,"stimulus":"\n    <p>In this experiment, 4 images will appear on the screen. 3 out of 4 images were generated with a certain rule while one image (the odd one out) does not respect this rule. Select the odd one out by clicking on the image.</p>\n    <p>Following your choice, you will be asked to rate how confident you were about your choice on a scale from 1 to 100. Then, you will receive feedback on the trial.</p>\n    <p>For each rule you will perform 20 trials. You will be notified at each rule change. </p>\n    <p> Press any button to continue </p>\n    <div style='margin: auto; position: relative; width: 400px; height: 400px;'>\n        <div style='position: absolute; top: 0;     left: 0; '><img src='../static/img/square.png'></img></div>\n        <div style='position: absolute; top: 0;     right: 0;'><img src='../static/img/square.png'></img></div>\n        <div style='position: absolute; bottom: 0;  left: 0; '><img src='../static/img/square.png'></img></div>\n        <div style='position: absolute; bottom: 0;  right: 0;'><img src='../static/img/square.png'></img></div>\n    </div>\n","response":" ","trial_type":"html-keyboard-response","trial_index":2,"time_elapsed":7942,"internal_node_id":"0.0-2.0"},{"rt":444,"stimulus":"<h1 style='font-size: 60px'>New Rule!</h1> <p>Press any key to begin.</p>","response":" ","trial_type":"html-keyboard-response","trial_index":3,"time_elapsed":10389,"internal_node_id":"0.0-3.0"},{"rt":1332,"response":0,"all_choices":["../static/human_exp_images/task_shape/00_3.png","../static/human_exp_images/task_shape/00_1.png","../static/human_exp_images/task_shape/00_0.png","../static/human_exp_images/task_shape/00_2.png"],"task":"response","correct_response":0,"shuffled_array":[3,1,0,2],"trial_type":"image-click","trial_index":4,"time_elapsed":11725,"internal_node_id":"0.0-4.0-0.0","mouse_tracking_data":[{"x":1006,"y":523,"t":685,"event":"mousemove"},{"x":1006,"y":521,"t":686,"event":"mousemove"},{"x":1006,"y":512,"t":703,"event":"mousemove"},{"x":1006,"y":498,"t":721,"event":"mousemove"},{"x":1014,"y":489,"t":736,"event":"mousemove"},{"x":1037,"y":460,"t":753,"event":"mousemove"},{"x":1058,"y":435,"t":769,"event":"mousemove"},{"x":1081,"y":407,"t":786,"event":"mousemove"},{"x":1100,"y":388,"t":802,"event":"mousemove"},{"x":1120,"y":368,"t":819,"event":"mousemove"},{"x":1128,"y":358,"t":836,"event":"mousemove"},{"x":1137,"y":348,"t":853,"event":"mousemove"},{"x":1143,"y":338,"t":870,"event":"mousemove"},{"x":1146,"y":335,"t":886,"event":"mousemove"},{"x":1146,"y":331,"t":904,"event":"mousemove"},{"x":1146,"y":330,"t":920,"event":"mousemove"},{"x":1146,"y":324,"t":937,"event":"mousemove"},{"x":1146,"y":314,"t":953,"event":"mousemove"},{"x":1146,"y":301,"t":970,"event":"mousemove"},{"x":1119,"y":279,"t":986,"event":"mousemove"},{"x":1072,"y":256,"t":1003,"event":"mousemove"},{"x":1000,"y":231,"t":1019,"event":"mousemove"},{"x":924,"y":208,"t":1037,"event":"mousemove"},{"x":854,"y":187,"t":1053,"event":"mousemove"},{"x":793,"y":170,"t":1070,"event":"mousemove"},{"x":757,"y":151,"t":1087,"event":"mousemove"},{"x":743,"y":142,"t":1103,"event":"mousemove"},{"x":734,"y":135,"t":1120,"event":"mousemove"},{"x":731,"y":131,"t":1136,"event":"mousemove"},{"x":729,"y":131,"t":1154,"event":"mousemove"},{"x":729,"y":130,"t":1258,"event":"mousemove"}],"mouse_tracking_targets":{},"correct":true},{"rt":3106,"stimulus":"<p>How confident are you about your choice ?</p>","slider_start":50,"response":71,"trial_type":"html-slider-response","trial_index":5,"time_elapsed":14833,"internal_node_id":"0.0-4.0-1.0"},{"rt":null,"stimulus":"\n        <div id='jspsych-image' style='position: relative; width: min(80vw, 80vh); height: min(80vw, 80vh);'>\n                \n                <div style='position: absolute; top: 40%; left: 30%; bottom: 40%; right: 30%;'><h1 style='font-size: 60px; color: green;'>Correct!</h1></div>\n                \n                <div class='jspsych-image' id='jspsych-image-0' data-choice='0' style='top: 0;     left: 0;'><img style=\"max-width: 100%; max-height: 100%;\" src='../static/human_exp_images/task_shape/00_3.png' class='correct-choice'></img></div>\n                <div class='jspsych-image' id='jspsych-image-1' data-choice='1' style='top: 0;     right: 0;'><img style=\"max-width: 100%; max-height: 100%;\" src='../static/human_exp_images/task_shape/00_1.png' class=''></img></div>\n                <div class='jspsych-image' id='jspsych-image-2' data-choice='2' style='bottom: 0;  left: 0;'><img style=\"max-width: 100%; max-height: 100%;\" src='../static/human_exp_images/task_shape/00_0.png' class=''></img></div>\n                <div class='jspsych-image' id='jspsych-image-3' data-choice='3' style='bottom: 0;  right: 0;'><img style=\"max-width: 100%; max-height: 100%;\" src='../static/human_exp_images/task_shape/00_2.png' class=''></img></div>\n\n        </div>","response":null,"trial_type":"html-keyboard-response","trial_index":6,"time_elapsed":16336,"internal_node_id":"0.0-4.0-2.0"},{"rt":1086,"stimulus":"<p>You responded correctly on 100% of the trials.</p>\n    <p>Your average response time was 1332ms.</p>\n    <p>Press any key to complete the experiment. Thank you!</p>","response":" ","trial_type":"html-keyboard-response","trial_index":7,"time_elapsed":17423,"internal_node_id":"0.0-5.0","interactions":"[{\"event\":\"focus\",\"trial\":0,\"time\":1}]"}]