[{"success":true,"timeout":false,"failed_images":[],"failed_audio":[],"failed_video":[],"trial_type":"preload","trial_index":0,"time_elapsed":12,"internal_node_id":"0.0-0.0"},{"rt":925,"stimulus":"<p style='font-size: 40px'>Welcome to the experiment.</p><p style='font-size: 30px'>Press any key to begin.</p>","response":" ","trial_type":"html-keyboard-response","trial_index":1,"time_elapsed":938,"internal_node_id":"0.0-1.0"},{"rt":989,"stimulus":"\n    <p>In this experiment, 4 images will appear on the screen. 3 out of 4 images were generated with a certain rule while one image (the odd one out) does not respect this rule. Select the odd one out by clicking on the image.</p>\n    <p>Following your choice, you will be asked to rate how confident you were about your choice on a scale from 1 to 100. Then, you will receive feedback on the trial.</p>\n    <p>For each rule you will perform 20 trials. You will be notified at each rule change. </p>\n    <p> Press any button to continue </p>\n    <div style='margin: auto; position: relative; width: 400px; height: 400px;'>\n        <div style='position: absolute; top: 0;     left: 0; '><img src='../static/img/square.png'></img></div>\n        <div style='position: absolute; top: 0;     right: 0;'><img src='../static/img/square.png'></img></div>\n        <div style='position: absolute; bottom: 0;  left: 0; '><img src='../static/img/square.png'></img></div>\n        <div style='position: absolute; bottom: 0;  right: 0;'><img src='../static/img/square.png'></img></div>\n    </div>\n","response":" ","trial_type":"html-keyboard-response","trial_index":2,"time_elapsed":1930,"internal_node_id":"0.0-2.0"},{"rt":929,"stimulus":"<h1 style='font-size: 60px'>New Rule!</h1> <p>Press any key to begin.</p>","response":" ","trial_type":"html-keyboard-response","trial_index":3,"time_elapsed":4860,"internal_node_id":"0.0-3.0"},{"rt":926,"response":3,"all_choices":["../static/human_exp_images/task_shape/00_2.png","../static/human_exp_images/task_shape/00_0.png","../static/human_exp_images/task_shape/00_3.png","../static/human_exp_images/task_shape/00_1.png"],"task":"response","correct_response":2,"shuffled_array":[2,0,3,1],"trial_type":"image-click","trial_index":4,"time_elapsed":5791,"internal_node_id":"0.0-4.0-0.0","mouse_tracking_data":[{"x":915,"y":531,"t":488,"event":"mousemove"},{"x":918,"y":531,"t":590,"event":"mousemove"},{"x":920,"y":531,"t":592,"event":"mousemove"},{"x":935,"y":531,"t":608,"event":"mousemove"},{"x":979,"y":544,"t":625,"event":"mousemove"},{"x":1007,"y":549,"t":641,"event":"mousemove"},{"x":1056,"y":565,"t":659,"event":"mousemove"},{"x":1087,"y":581,"t":675,"event":"mousemove"},{"x":1101,"y":587,"t":692,"event":"mousemove"},{"x":1112,"y":593,"t":708,"event":"mousemove"},{"x":1119,"y":597,"t":726,"event":"mousemove"},{"x":1124,"y":598,"t":742,"event":"mousemove"},{"x":1133,"y":602,"t":759,"event":"mousemove"},{"x":1146,"y":605,"t":775,"event":"mousemove"},{"x":1160,"y":609,"t":791,"event":"mousemove"},{"x":1172,"y":614,"t":808,"event":"mousemove"},{"x":1177,"y":619,"t":825,"event":"mousemove"},{"x":1177,"y":622,"t":841,"event":"mousemove"},{"x":1179,"y":622,"t":859,"event":"mousemove"}],"mouse_tracking_targets":{},"correct":false},{"rt":679,"stimulus":"<p>How confident are you about your choice ?</p>","slider_start":50,"response":50,"trial_type":"html-slider-response","trial_index":5,"time_elapsed":6473,"internal_node_id":"0.0-4.0-1.0"},{"rt":null,"stimulus":"\n        <div id='jspsych-image' style='position: relative; width: min(80vw, 80vh); height: min(80vw, 80vh);'>\n                \n                <div style='position: absolute; top: 40%; left: 30%; bottom: 40%; right: 30%;'><h1 style='font-size: 60px; color: red'>Wrong</h1></div>\n                \n                <div class='jspsych-image' id='jspsych-image-0' data-choice='0' style='top: 0;     left: 0;'><img style=\"max-width: 100%; max-height: 100%;\" src='../static/human_exp_images/task_shape/00_2.png' class=''></img></div>\n                <div class='jspsych-image' id='jspsych-image-1' data-choice='1' style='top: 0;     right: 0;'><img style=\"max-width: 100%; max-height: 100%;\" src='../static/human_exp_images/task_shape/00_0.png' class=''></img></div>\n                <div class='jspsych-image' id='jspsych-image-2' data-choice='2' style='bottom: 0;  left: 0;'><img style=\"max-width: 100%; max-height: 100%;\" src='../static/human_exp_images/task_shape/00_3.png' class='correct-choice'></img></div>\n                <div class='jspsych-image' id='jspsych-image-3' data-choice='3' style='bottom: 0;  right: 0;'><img style=\"max-width: 100%; max-height: 100%;\" src='../static/human_exp_images/task_shape/00_1.png' class='wrong-choice'></img></div>\n\n        </div>","response":null,"trial_type":"html-keyboard-response","trial_index":6,"time_elapsed":8978,"internal_node_id":"0.0-4.0-2.0"},{"rt":863,"stimulus":"<p>You responded correctly on 0% of the trials.</p>\n    <p>Your average response time was NaNms.</p>\n    <p>Press any key to complete the experiment. Thank you!</p>","response":" ","trial_type":"html-keyboard-response","trial_index":7,"time_elapsed":9846,"internal_node_id":"0.0-5.0","interactions":"[]"}]