[{"success":true,"timeout":false,"failed_images":[],"failed_audio":[],"failed_video":[],"trial_type":"preload","trial_index":0,"time_elapsed":14,"internal_node_id":"0.0-0.0"},{"rt":738,"stimulus":"<p style='font-size: 40px'>Welcome to the experiment.</p><p style='font-size: 30px'>Press any key to begin.</p>","response":" ","trial_type":"html-keyboard-response","trial_index":1,"time_elapsed":752,"internal_node_id":"0.0-1.0"},{"rt":359,"stimulus":"\n    <p>In this experiment, 4 images will appear on the screen. 3 out of 4 images were generated with a certain rule while one image (the odd one out) does not respect this rule. Select the odd one out by clicking on the image.</p>\n    <p>Following your choice, you will be asked to rate how confident you were about your choice on a scale from 1 to 100. Then, you will receive feedback on the trial.</p>\n    <p>For each rule you will perform 20 trials. You will be notified at each rule change. </p>\n    <p> Press any button to continue </p>\n    <div style='margin: auto; position: relative; width: 400px; height: 400px;'>\n        <div style='position: absolute; top: 0;     left: 0; '><img src='../static/img/square.png'></img></div>\n        <div style='position: absolute; top: 0;     right: 0;'><img src='../static/img/square.png'></img></div>\n        <div style='position: absolute; bottom: 0;  left: 0; '><img src='../static/img/square.png'></img></div>\n        <div style='position: absolute; bottom: 0;  right: 0;'><img src='../static/img/square.png'></img></div>\n    </div>\n","response":" ","trial_type":"html-keyboard-response","trial_index":2,"time_elapsed":1115,"internal_node_id":"0.0-2.0"},{"rt":238,"stimulus":"<h1 style='font-size: 60px'>New Rule!</h1> <p>Press any key to begin.</p>","response":" ","trial_type":"html-keyboard-response","trial_index":3,"time_elapsed":3356,"internal_node_id":"0.0-3.0"},{"rt":1030,"response":3,"all_choices":["../static/human_exp_images/task_shape/00_0.png","../static/human_exp_images/task_shape/00_1.png","../static/human_exp_images/task_shape/00_3.png","../static/human_exp_images/task_shape/00_2.png"],"task":"response","correct_response":2,"shuffled_array":[0,1,3,2],"trial_type":"image-click","trial_index":4,"time_elapsed":4389,"internal_node_id":"0.0-4.0-0.0","mouse_tracking_data":[{"x":990,"y":620,"t":657,"event":"mousemove"},{"x":993,"y":621,"t":663,"event":"mousemove"},{"x":1000,"y":623,"t":666,"event":"mousemove"},{"x":1005,"y":626,"t":667,"event":"mousemove"},{"x":1021,"y":628,"t":684,"event":"mousemove"},{"x":1044,"y":636,"t":700,"event":"mousemove"},{"x":1058,"y":642,"t":717,"event":"mousemove"},{"x":1067,"y":645,"t":734,"event":"mousemove"},{"x":1076,"y":647,"t":750,"event":"mousemove"},{"x":1089,"y":647,"t":767,"event":"mousemove"},{"x":1096,"y":647,"t":783,"event":"mousemove"},{"x":1108,"y":647,"t":801,"event":"mousemove"},{"x":1123,"y":647,"t":817,"event":"mousemove"},{"x":1139,"y":647,"t":833,"event":"mousemove"},{"x":1151,"y":647,"t":851,"event":"mousemove"},{"x":1156,"y":647,"t":867,"event":"mousemove"},{"x":1158,"y":647,"t":884,"event":"mousemove"},{"x":1159,"y":647,"t":948,"event":"mousemove"}],"mouse_tracking_targets":{},"correct":false},{"rt":806,"stimulus":"<p>How confident are you about your choice ?</p>","slider_start":50,"response":50,"trial_type":"html-slider-response","trial_index":5,"time_elapsed":5197,"internal_node_id":"0.0-4.0-1.0"},{"rt":null,"stimulus":"\n        <div id='jspsych-image' style='position: relative; width: min(80vw, 80vh); height: min(80vw, 80vh);'>\n                \n                <div style='position: absolute; top: 40%; left: 30%; bottom: 40%; right: 30%;'><h1 style='font-size: 60px; color: red'>Wrong</h1></div>\n                \n                <div class='jspsych-image' id='jspsych-image-0' data-choice='0' style='top: 0;     left: 0;'><img style=\"max-width: 100%; max-height: 100%;\" src='../static/human_exp_images/task_shape/00_0.png' class=''></img></div>\n                <div class='jspsych-image' id='jspsych-image-1' data-choice='1' style='top: 0;     right: 0;'><img style=\"max-width: 100%; max-height: 100%;\" src='../static/human_exp_images/task_shape/00_1.png' class=''></img></div>\n                <div class='jspsych-image' id='jspsych-image-2' data-choice='2' style='bottom: 0;  left: 0;'><img style=\"max-width: 100%; max-height: 100%;\" src='../static/human_exp_images/task_shape/00_3.png' class='correct-choice'></img></div>\n                <div class='jspsych-image' id='jspsych-image-3' data-choice='3' style='bottom: 0;  right: 0;'><img style=\"max-width: 100%; max-height: 100%;\" src='../static/human_exp_images/task_shape/00_2.png' class='wrong-choice'></img></div>\n\n        </div>","response":null,"trial_type":"html-keyboard-response","trial_index":6,"time_elapsed":7699,"internal_node_id":"0.0-4.0-2.0"},{"rt":1080,"stimulus":"<p>You responded correctly on 0% of the trials.</p>\n    <p>Your average response time was NaNms.</p>\n    <p>Press any key to complete the experiment. Thank you!</p>","response":" ","trial_type":"html-keyboard-response","trial_index":7,"time_elapsed":8783,"internal_node_id":"0.0-5.0","interactions":"[]"}]