[{"rt":null,"trial_type":"image-click","trial_index":4,"time_elapsed":6818,"internal_node_id":"0.0-4.0-0.0"},{"rt":2641,"response":3,"all_choices":["../static/human_exp_images/practice_img/00_2.png","../static/human_exp_images/practice_img/00_0.png","../static/human_exp_images/practice_img/00_1.png","../static/human_exp_images/practice_img/00_3.png"],"task":"response","correct_response":3,"shuffled_array":[2,0,1,3],"catch_trial":false,"trial_type":"image-click","trial_index":5,"time_elapsed":9463,"internal_node_id":"0.0-4.0-1.0","mouse_tracking_data":[{"x":962,"y":499,"t":1,"event":"mousemove"},{"x":953,"y":460,"t":11,"event":"mousemove"},{"x":944,"y":418,"t":28,"event":"mousemove"},{"x":938,"y":387,"t":45,"event":"mousemove"},{"x":936,"y":378,"t":62,"event":"mousemove"},{"x":936,"y":377,"t":79,"event":"mousemove"},{"x":936,"y":378,"t":1109,"event":"mousemove"},{"x":936,"y":380,"t":1118,"event":"mousemove"},{"x":936,"y":381,"t":1129,"event":"mousemove"},{"x":936,"y":383,"t":1140,"event":"mousemove"},{"x":936,"y":385,"t":1145,"event":"mousemove"},{"x":936,"y":387,"t":1163,"event":"mousemove"},{"x":938,"y":388,"t":1165,"event":"mousemove"},{"x":940,"y":390,"t":1171,"event":"mousemove"},{"x":943,"y":392,"t":1181,"event":"mousemove"},{"x":945,"y":393,"t":1190,"event":"mousemove"},{"x":946,"y":395,"t":1192,"event":"mousemove"},{"x":948,"y":397,"t":1207,"event":"mousemove"},{"x":957,"y":402,"t":1224,"event":"mousemove"},{"x":960,"y":409,"t":1241,"event":"mousemove"},{"x":965,"y":412,"t":1258,"event":"mousemove"},{"x":969,"y":416,"t":1273,"event":"mousemove"},{"x":972,"y":419,"t":1291,"event":"mousemove"},{"x":977,"y":424,"t":1307,"event":"mousemove"},{"x":982,"y":429,"t":1324,"event":"mousemove"},{"x":986,"y":434,"t":1340,"event":"mousemove"},{"x":987,"y":436,"t":1358,"event":"mousemove"},{"x":989,"y":438,"t":1375,"event":"mousemove"},{"x":989,"y":440,"t":1390,"event":"mousemove"},{"x":993,"y":443,"t":1407,"event":"mousemove"},{"x":999,"y":450,"t":1424,"event":"mousemove"},{"x":1005,"y":453,"t":1441,"event":"mousemove"},{"x":1008,"y":458,"t":1458,"event":"mousemove"},{"x":1010,"y":460,"t":1474,"event":"mousemove"},{"x":1011,"y":462,"t":1490,"event":"mousemove"},{"x":1013,"y":463,"t":1508,"event":"mousemove"},{"x":1013,"y":465,"t":1525,"event":"mousemove"},{"x":1015,"y":467,"t":1541,"event":"mousemove"},{"x":1018,"y":470,"t":1557,"event":"mousemove"},{"x":1023,"y":475,"t":1574,"event":"mousemove"},{"x":1027,"y":479,"t":1592,"event":"mousemove"},{"x":1030,"y":482,"t":1607,"event":"mousemove"},{"x":1032,"y":484,"t":1626,"event":"mousemove"},{"x":1034,"y":486,"t":1641,"event":"mousemove"},{"x":1035,"y":487,"t":1657,"event":"mousemove"},{"x":1037,"y":487,"t":1674,"event":"mousemove"},{"x":1037,"y":489,"t":1701,"event":"mousemove"},{"x":1039,"y":491,"t":1729,"event":"mousemove"},{"x":1040,"y":492,"t":1738,"event":"mousemove"},{"x":1040,"y":494,"t":1747,"event":"mousemove"},{"x":1042,"y":496,"t":1749,"event":"mousemove"},{"x":1044,"y":498,"t":1757,"event":"mousemove"},{"x":1044,"y":499,"t":1766,"event":"mousemove"},{"x":1044,"y":501,"t":1776,"event":"mousemove"},{"x":1046,"y":501,"t":1783,"event":"mousemove"},{"x":1046,"y":503,"t":1785,"event":"mousemove"},{"x":1047,"y":504,"t":1801,"event":"mousemove"},{"x":1049,"y":506,"t":1820,"event":"mousemove"},{"x":1049,"y":508,"t":1838,"event":"mousemove"},{"x":1051,"y":508,"t":1846,"event":"mousemove"},{"x":1051,"y":510,"t":1856,"event":"mousemove"},{"x":1052,"y":510,"t":1858,"event":"mousemove"},{"x":1056,"y":515,"t":1874,"event":"mousemove"},{"x":1063,"y":525,"t":1891,"event":"mousemove"},{"x":1066,"y":530,"t":1907,"event":"mousemove"},{"x":1071,"y":539,"t":1924,"event":"mousemove"},{"x":1076,"y":545,"t":1940,"event":"mousemove"},{"x":1080,"y":552,"t":1958,"event":"mousemove"},{"x":1083,"y":556,"t":1974,"event":"mousemove"},{"x":1088,"y":564,"t":1992,"event":"mousemove"},{"x":1092,"y":569,"t":2008,"event":"mousemove"},{"x":1095,"y":573,"t":2024,"event":"mousemove"},{"x":1097,"y":578,"t":2042,"event":"mousemove"},{"x":1098,"y":578,"t":2058,"event":"mousemove"},{"x":1100,"y":580,"t":2075,"event":"mousemove"},{"x":1102,"y":581,"t":2091,"event":"mousemove"},{"x":1102,"y":583,"t":2108,"event":"mousemove"},{"x":1105,"y":586,"t":2125,"event":"mousemove"},{"x":1114,"y":595,"t":2141,"event":"mousemove"},{"x":1121,"y":602,"t":2158,"event":"mousemove"},{"x":1128,"y":609,"t":2174,"event":"mousemove"},{"x":1129,"y":612,"t":2191,"event":"mousemove"},{"x":1133,"y":615,"t":2209,"event":"mousemove"},{"x":1134,"y":617,"t":2224,"event":"mousemove"},{"x":1136,"y":619,"t":2277,"event":"mousemove"},{"x":1138,"y":621,"t":2289,"event":"mousemove"},{"x":1139,"y":622,"t":2299,"event":"mousemove"},{"x":1141,"y":622,"t":2305,"event":"mousemove"},{"x":1141,"y":624,"t":2313,"event":"mousemove"},{"x":1143,"y":626,"t":2333,"event":"mousemove"},{"x":1145,"y":626,"t":2349,"event":"mousemove"},{"x":1145,"y":627,"t":2360,"event":"mousemove"},{"x":1146,"y":629,"t":2378,"event":"mousemove"},{"x":1148,"y":631,"t":2396,"event":"mousemove"},{"x":1150,"y":631,"t":2415,"event":"mousemove"},{"x":1150,"y":633,"t":2467,"event":"mousemove"},{"x":1150,"y":634,"t":2505,"event":"mousemove"},{"x":1151,"y":634,"t":2505,"event":"mousemove"},{"x":1153,"y":638,"t":2522,"event":"mousemove"},{"x":1155,"y":638,"t":2539,"event":"mousemove"},{"x":1155,"y":639,"t":2554,"event":"mousemove"},{"x":1155,"y":641,"t":2572,"event":"mousemove"}],"mouse_tracking_targets":{},"correct":true},{"rt":1130,"stimulus":"<p>How confident are you about your choice ? (click on the bar)</p>","slider_start":50,"response":88,"trial_type":"html-slider-response","trial_index":6,"time_elapsed":10595,"internal_node_id":"0.0-4.0-2.0"},{"rt":null,"stimulus":"\n        <div id='jspsych-image' style='position: relative; width: min(80vw, 80vh); height: min(80vw, 80vh);'>\n                \n                <div style='position: absolute; top: 40%; left: 30%; bottom: 40%; right: 30%;'><h1 style='font-size: 60px; color: green;'>Correct!</h1></div>\n                \n                <div class='jspsych-image' id='jspsych-image-0' data-choice='0' style='top: 0;     left: 0;'><img style=\"width: 100%; height: 100%;\" src='../static/human_exp_images/practice_img/00_2.png' class=''></img></div>\n                <div class='jspsych-image' id='jspsych-image-1' data-choice='1' style='top: 0;     right: 0;'><img style=\"width: 100%; height: 100%;\" src='../static/human_exp_images/practice_img/00_0.png' class=''></img></div>\n                <div class='jspsych-image' id='jspsych-image-2' data-choice='2' style='bottom: 0;  left: 0;'><img style=\"width: 100%; height: 100%;\" src='../static/human_exp_images/practice_img/00_1.png' class=''></img></div>\n                <div class='jspsych-image' id='jspsych-image-3' data-choice='3' style='bottom: 0;  right: 0;'><img style=\"width: 100%; height: 100%;\" src='../static/human_exp_images/practice_img/00_3.png' class='correct-choice'></img></div>\n\n        </div>","response":null,"trial_type":"html-keyboard-response","trial_index":7,"time_elapsed":12100,"internal_node_id":"0.0-4.0-3.0"},{"rt":null,"trial_type":"image-click","trial_index":8,"time_elapsed":12673,"internal_node_id":"0.0-4.0-0.1"},{"rt":1282,"response":3,"all_choices":["../static/human_exp_images/practice_img/01_0.png","../static/human_exp_images/practice_img/01_1.png","../static/human_exp_images/practice_img/01_2.png","../static/human_exp_images/practice_img/01_3.png"],"task":"response","correct_response":3,"shuffled_array":[0,1,2,3],"catch_trial":false,"trial_type":"image-click","trial_index":9,"time_elapsed":13959,"internal_node_id":"0.0-4.0-1.1","mouse_tracking_data":[{"x":1042,"y":478,"t":1,"event":"mousemove"},{"x":1019,"y":478,"t":12,"event":"mousemove"},{"x":999,"y":478,"t":29,"event":"mousemove"},{"x":980,"y":478,"t":45,"event":"mousemove"},{"x":971,"y":478,"t":62,"event":"mousemove"},{"x":961,"y":478,"t":79,"event":"mousemove"},{"x":957,"y":478,"t":96,"event":"mousemove"},{"x":954,"y":478,"t":111,"event":"mousemove"},{"x":952,"y":478,"t":128,"event":"mousemove"},{"x":952,"y":476,"t":673,"event":"mousemove"},{"x":952,"y":475,"t":692,"event":"mousemove"},{"x":954,"y":475,"t":838,"event":"mousemove"},{"x":955,"y":475,"t":847,"event":"mousemove"},{"x":959,"y":475,"t":855,"event":"mousemove"},{"x":961,"y":475,"t":857,"event":"mousemove"},{"x":973,"y":475,"t":874,"event":"mousemove"},{"x":986,"y":475,"t":891,"event":"mousemove"},{"x":1009,"y":475,"t":907,"event":"mousemove"},{"x":1028,"y":487,"t":924,"event":"mousemove"},{"x":1054,"y":504,"t":941,"event":"mousemove"},{"x":1075,"y":523,"t":958,"event":"mousemove"},{"x":1100,"y":546,"t":973,"event":"mousemove"},{"x":1116,"y":560,"t":990,"event":"mousemove"},{"x":1137,"y":576,"t":1007,"event":"mousemove"},{"x":1151,"y":588,"t":1025,"event":"mousemove"},{"x":1156,"y":593,"t":1041,"event":"mousemove"},{"x":1161,"y":596,"t":1057,"event":"mousemove"},{"x":1164,"y":599,"t":1074,"event":"mousemove"},{"x":1168,"y":599,"t":1091,"event":"mousemove"},{"x":1168,"y":601,"t":1107,"event":"mousemove"},{"x":1168,"y":603,"t":1138,"event":"mousemove"},{"x":1169,"y":603,"t":1141,"event":"mousemove"},{"x":1173,"y":606,"t":1157,"event":"mousemove"},{"x":1175,"y":608,"t":1174,"event":"mousemove"}],"mouse_tracking_targets":{},"correct":true},{"rt":1354,"stimulus":"<p>How confident are you about your choice ? (click on the bar)</p>","slider_start":50,"response":95,"trial_type":"html-slider-response","trial_index":10,"time_elapsed":15316,"internal_node_id":"0.0-4.0-2.1"},{"rt":null,"stimulus":"\n        <div id='jspsych-image' style='position: relative; width: min(80vw, 80vh); height: min(80vw, 80vh);'>\n                \n                <div style='position: absolute; top: 40%; left: 30%; bottom: 40%; right: 30%;'><h1 style='font-size: 60px; color: green;'>Correct!</h1></div>\n                \n                <div class='jspsych-image' id='jspsych-image-0' data-choice='0' style='top: 0;     left: 0;'><img style=\"width: 100%; height: 100%;\" src='../static/human_exp_images/practice_img/01_0.png' class=''></img></div>\n                <div class='jspsych-image' id='jspsych-image-1' data-choice='1' style='top: 0;     right: 0;'><img style=\"width: 100%; height: 100%;\" src='../static/human_exp_images/practice_img/01_1.png' class=''></img></div>\n                <div class='jspsych-image' id='jspsych-image-2' data-choice='2' style='bottom: 0;  left: 0;'><img style=\"width: 100%; height: 100%;\" src='../static/human_exp_images/practice_img/01_2.png' class=''></img></div>\n                <div class='jspsych-image' id='jspsych-image-3' data-choice='3' style='bottom: 0;  right: 0;'><img style=\"width: 100%; height: 100%;\" src='../static/human_exp_images/practice_img/01_3.png' class='correct-choice'></img></div>\n\n        </div>","response":null,"trial_type":"html-keyboard-response","trial_index":11,"time_elapsed":16821,"internal_node_id":"0.0-4.0-3.1"},{"rt":null,"trial_type":"image-click","trial_index":12,"time_elapsed":17296,"internal_node_id":"0.0-4.0-0.2"},{"rt":1004,"response":2,"all_choices":["../static/human_exp_images/practice_img/02_1.png","../static/human_exp_images/practice_img/02_2.png","../static/human_exp_images/practice_img/02_3.png","../static/human_exp_images/practice_img/02_0.png"],"task":"response","correct_response":2,"shuffled_array":[1,2,3,0],"catch_trial":false,"trial_type":"image-click","trial_index":13,"time_elapsed":18302,"internal_node_id":"0.0-4.0-1.2","mouse_tracking_data":[{"x":1027,"y":465,"t":1,"event":"mousemove"},{"x":988,"y":462,"t":13,"event":"mousemove"},{"x":962,"y":459,"t":30,"event":"mousemove"},{"x":951,"y":458,"t":46,"event":"mousemove"},{"x":941,"y":458,"t":64,"event":"mousemove"},{"x":936,"y":458,"t":80,"event":"mousemove"},{"x":931,"y":456,"t":97,"event":"mousemove"},{"x":925,"y":456,"t":114,"event":"mousemove"},{"x":920,"y":456,"t":130,"event":"mousemove"},{"x":919,"y":456,"t":147,"event":"mousemove"},{"x":919,"y":454,"t":217,"event":"mousemove"},{"x":919,"y":452,"t":255,"event":"mousemove"},{"x":920,"y":452,"t":400,"event":"mousemove"},{"x":922,"y":452,"t":403,"event":"mousemove"},{"x":925,"y":452,"t":409,"event":"mousemove"},{"x":929,"y":452,"t":410,"event":"mousemove"},{"x":934,"y":452,"t":427,"event":"mousemove"},{"x":948,"y":452,"t":444,"event":"mousemove"},{"x":958,"y":454,"t":459,"event":"mousemove"},{"x":966,"y":459,"t":476,"event":"mousemove"},{"x":973,"y":464,"t":493,"event":"mousemove"},{"x":977,"y":468,"t":510,"event":"mousemove"},{"x":980,"y":471,"t":527,"event":"mousemove"},{"x":983,"y":475,"t":543,"event":"mousemove"},{"x":987,"y":476,"t":560,"event":"mousemove"},{"x":989,"y":478,"t":576,"event":"mousemove"},{"x":990,"y":480,"t":594,"event":"mousemove"},{"x":990,"y":481,"t":627,"event":"mousemove"},{"x":990,"y":483,"t":692,"event":"mousemove"},{"x":990,"y":487,"t":700,"event":"mousemove"},{"x":990,"y":488,"t":704,"event":"mousemove"},{"x":985,"y":493,"t":709,"event":"mousemove"},{"x":980,"y":495,"t":713,"event":"mousemove"},{"x":968,"y":502,"t":719,"event":"mousemove"},{"x":959,"y":508,"t":720,"event":"mousemove"},{"x":913,"y":536,"t":736,"event":"mousemove"},{"x":882,"y":564,"t":753,"event":"mousemove"},{"x":840,"y":597,"t":770,"event":"mousemove"},{"x":816,"y":624,"t":787,"event":"mousemove"},{"x":802,"y":635,"t":803,"event":"mousemove"},{"x":788,"y":649,"t":820,"event":"mousemove"},{"x":783,"y":652,"t":836,"event":"mousemove"},{"x":776,"y":659,"t":854,"event":"mousemove"},{"x":773,"y":664,"t":870,"event":"mousemove"},{"x":771,"y":667,"t":886,"event":"mousemove"}],"mouse_tracking_targets":{},"correct":true},{"rt":1426,"stimulus":"<p>How confident are you about your choice ? (click on the bar)</p>","slider_start":50,"response":93,"trial_type":"html-slider-response","trial_index":14,"time_elapsed":19728,"internal_node_id":"0.0-4.0-2.2"},{"rt":null,"stimulus":"\n        <div id='jspsych-image' style='position: relative; width: min(80vw, 80vh); height: min(80vw, 80vh);'>\n                \n                <div style='position: absolute; top: 40%; left: 30%; bottom: 40%; right: 30%;'><h1 style='font-size: 60px; color: green;'>Correct!</h1></div>\n                \n                <div class='jspsych-image' id='jspsych-image-0' data-choice='0' style='top: 0;     left: 0;'><img style=\"width: 100%; height: 100%;\" src='../static/human_exp_images/practice_img/02_1.png' class=''></img></div>\n                <div class='jspsych-image' id='jspsych-image-1' data-choice='1' style='top: 0;     right: 0;'><img style=\"width: 100%; height: 100%;\" src='../static/human_exp_images/practice_img/02_2.png' class=''></img></div>\n                <div class='jspsych-image' id='jspsych-image-2' data-choice='2' style='bottom: 0;  left: 0;'><img style=\"width: 100%; height: 100%;\" src='../static/human_exp_images/practice_img/02_3.png' class='correct-choice'></img></div>\n                <div class='jspsych-image' id='jspsych-image-3' data-choice='3' style='bottom: 0;  right: 0;'><img style=\"width: 100%; height: 100%;\" src='../static/human_exp_images/practice_img/02_0.png' class=''></img></div>\n\n        </div>","response":null,"trial_type":"html-keyboard-response","trial_index":15,"time_elapsed":21231,"internal_node_id":"0.0-4.0-3.2"}]