[{"rt":null,"trial_type":"image-click","trial_index":4,"time_elapsed":7869,"internal_node_id":"0.0-4.0-0.0"},{"rt":1279,"response":2,"all_choices":["../static/human_exp_images/practice_img/00_1.png","../static/human_exp_images/practice_img/00_0.png","../static/human_exp_images/practice_img/00_3.png","../static/human_exp_images/practice_img/00_2.png"],"task":"response","correct_response":2,"shuffled_array":[1,0,3,2],"catch_trial":false,"trial_type":"image-click","trial_index":5,"time_elapsed":9149,"internal_node_id":"0.0-4.0-1.0","mouse_tracking_data":[{"x":973,"y":523,"t":0,"event":"mousemove"},{"x":973,"y":496,"t":16,"event":"mousemove"},{"x":973,"y":483,"t":32,"event":"mousemove"},{"x":973,"y":481,"t":49,"event":"mousemove"},{"x":974,"y":481,"t":231,"event":"mousemove"},{"x":978,"y":481,"t":241,"event":"mousemove"},{"x":979,"y":481,"t":243,"event":"mousemove"},{"x":983,"y":481,"t":248,"event":"mousemove"},{"x":986,"y":481,"t":250,"event":"mousemove"},{"x":996,"y":481,"t":266,"event":"mousemove"},{"x":1005,"y":481,"t":283,"event":"mousemove"},{"x":1017,"y":481,"t":299,"event":"mousemove"},{"x":1026,"y":481,"t":316,"event":"mousemove"},{"x":1031,"y":481,"t":332,"event":"mousemove"},{"x":1036,"y":481,"t":349,"event":"mousemove"},{"x":1037,"y":481,"t":375,"event":"mousemove"},{"x":1034,"y":481,"t":705,"event":"mousemove"},{"x":1033,"y":481,"t":705,"event":"mousemove"},{"x":1026,"y":481,"t":721,"event":"mousemove"},{"x":1012,"y":481,"t":739,"event":"mousemove"},{"x":1002,"y":481,"t":754,"event":"mousemove"},{"x":993,"y":481,"t":772,"event":"mousemove"},{"x":990,"y":481,"t":788,"event":"mousemove"},{"x":987,"y":481,"t":805,"event":"mousemove"},{"x":985,"y":481,"t":823,"event":"mousemove"},{"x":983,"y":481,"t":896,"event":"mousemove"},{"x":982,"y":481,"t":909,"event":"mousemove"},{"x":980,"y":481,"t":915,"event":"mousemove"},{"x":976,"y":483,"t":924,"event":"mousemove"},{"x":975,"y":485,"t":925,"event":"mousemove"},{"x":963,"y":495,"t":941,"event":"mousemove"},{"x":947,"y":506,"t":958,"event":"mousemove"},{"x":909,"y":534,"t":974,"event":"mousemove"},{"x":867,"y":566,"t":992,"event":"mousemove"},{"x":827,"y":598,"t":1008,"event":"mousemove"},{"x":790,"y":626,"t":1024,"event":"mousemove"},{"x":765,"y":650,"t":1040,"event":"mousemove"},{"x":752,"y":661,"t":1058,"event":"mousemove"},{"x":732,"y":681,"t":1075,"event":"mousemove"},{"x":715,"y":695,"t":1092,"event":"mousemove"},{"x":704,"y":705,"t":1108,"event":"mousemove"},{"x":701,"y":708,"t":1124,"event":"mousemove"},{"x":699,"y":713,"t":1141,"event":"mousemove"},{"x":697,"y":713,"t":1169,"event":"mousemove"}],"mouse_tracking_targets":{},"correct":true},{"rt":1682,"stimulus":"<p>How confident are you about your choice ? (click on the bar)</p>","slider_start":50,"response":99,"trial_type":"html-slider-response","trial_index":6,"time_elapsed":10834,"internal_node_id":"0.0-4.0-2.0"},{"rt":null,"stimulus":"\n        <div id='jspsych-image' style='position: relative; width: min(80vw, 80vh); height: min(80vw, 80vh);'>\n                \n                <div style='position: absolute; top: 40%; left: 30%; bottom: 40%; right: 30%;'><h1 style='font-size: 60px; color: green;'>Correct!</h1></div>\n                \n                <div class='jspsych-image' id='jspsych-image-0' data-choice='0' style='top: 0;     left: 0;'><img style=\"width: 100%; height: 100%;\" src='../static/human_exp_images/practice_img/00_1.png' class=''></img></div>\n                <div class='jspsych-image' id='jspsych-image-1' data-choice='1' style='top: 0;     right: 0;'><img style=\"width: 100%; height: 100%;\" src='../static/human_exp_images/practice_img/00_0.png' class=''></img></div>\n                <div class='jspsych-image' id='jspsych-image-2' data-choice='2' style='bottom: 0;  left: 0;'><img style=\"width: 100%; height: 100%;\" src='../static/human_exp_images/practice_img/00_3.png' class='correct-choice'></img></div>\n                <div class='jspsych-image' id='jspsych-image-3' data-choice='3' style='bottom: 0;  right: 0;'><img style=\"width: 100%; height: 100%;\" src='../static/human_exp_images/practice_img/00_2.png' class=''></img></div>\n\n        </div>","response":null,"trial_type":"html-keyboard-response","trial_index":7,"time_elapsed":12339,"internal_node_id":"0.0-4.0-3.0"},{"rt":null,"trial_type":"image-click","trial_index":8,"time_elapsed":12850,"internal_node_id":"0.0-4.0-0.1"},{"rt":944,"response":1,"all_choices":["../static/human_exp_images/practice_img/01_0.png","../static/human_exp_images/practice_img/01_3.png","../static/human_exp_images/practice_img/01_2.png","../static/human_exp_images/practice_img/01_1.png"],"task":"response","correct_response":1,"shuffled_array":[0,3,2,1],"catch_trial":false,"trial_type":"image-click","trial_index":9,"time_elapsed":13797,"internal_node_id":"0.0-4.0-1.1","mouse_tracking_data":[{"x":1047,"y":489,"t":2,"event":"mousemove"},{"x":1031,"y":489,"t":13,"event":"mousemove"},{"x":1019,"y":489,"t":28,"event":"mousemove"},{"x":1004,"y":484,"t":46,"event":"mousemove"},{"x":992,"y":479,"t":62,"event":"mousemove"},{"x":987,"y":476,"t":80,"event":"mousemove"},{"x":984,"y":474,"t":97,"event":"mousemove"},{"x":984,"y":472,"t":115,"event":"mousemove"},{"x":984,"y":471,"t":234,"event":"mousemove"},{"x":984,"y":469,"t":344,"event":"mousemove"},{"x":984,"y":467,"t":363,"event":"mousemove"},{"x":984,"y":465,"t":399,"event":"mousemove"},{"x":985,"y":462,"t":591,"event":"mousemove"},{"x":987,"y":462,"t":594,"event":"mousemove"},{"x":990,"y":459,"t":600,"event":"mousemove"},{"x":994,"y":457,"t":604,"event":"mousemove"},{"x":997,"y":454,"t":608,"event":"mousemove"},{"x":999,"y":450,"t":609,"event":"mousemove"},{"x":1004,"y":445,"t":625,"event":"mousemove"},{"x":1013,"y":436,"t":642,"event":"mousemove"},{"x":1025,"y":421,"t":658,"event":"mousemove"},{"x":1063,"y":377,"t":692,"event":"mousemove"},{"x":1073,"y":369,"t":697,"event":"mousemove"},{"x":1075,"y":367,"t":699,"event":"mousemove"},{"x":1082,"y":360,"t":707,"event":"mousemove"},{"x":1086,"y":358,"t":709,"event":"mousemove"},{"x":1093,"y":351,"t":715,"event":"mousemove"},{"x":1095,"y":349,"t":719,"event":"mousemove"},{"x":1102,"y":345,"t":724,"event":"mousemove"},{"x":1104,"y":343,"t":730,"event":"mousemove"},{"x":1110,"y":339,"t":742,"event":"mousemove"},{"x":1119,"y":333,"t":759,"event":"mousemove"},{"x":1124,"y":328,"t":776,"event":"mousemove"},{"x":1127,"y":327,"t":793,"event":"mousemove"},{"x":1131,"y":327,"t":810,"event":"mousemove"},{"x":1131,"y":325,"t":826,"event":"mousemove"}],"mouse_tracking_targets":{},"correct":true},{"rt":980,"stimulus":"<p>How confident are you about your choice ? (click on the bar)</p>","slider_start":50,"response":100,"trial_type":"html-slider-response","trial_index":10,"time_elapsed":14779,"internal_node_id":"0.0-4.0-2.1"},{"rt":null,"stimulus":"\n        <div id='jspsych-image' style='position: relative; width: min(80vw, 80vh); height: min(80vw, 80vh);'>\n                \n                <div style='position: absolute; top: 40%; left: 30%; bottom: 40%; right: 30%;'><h1 style='font-size: 60px; color: green;'>Correct!</h1></div>\n                \n                <div class='jspsych-image' id='jspsych-image-0' data-choice='0' style='top: 0;     left: 0;'><img style=\"width: 100%; height: 100%;\" src='../static/human_exp_images/practice_img/01_0.png' class=''></img></div>\n                <div class='jspsych-image' id='jspsych-image-1' data-choice='1' style='top: 0;     right: 0;'><img style=\"width: 100%; height: 100%;\" src='../static/human_exp_images/practice_img/01_3.png' class='correct-choice'></img></div>\n                <div class='jspsych-image' id='jspsych-image-2' data-choice='2' style='bottom: 0;  left: 0;'><img style=\"width: 100%; height: 100%;\" src='../static/human_exp_images/practice_img/01_2.png' class=''></img></div>\n                <div class='jspsych-image' id='jspsych-image-3' data-choice='3' style='bottom: 0;  right: 0;'><img style=\"width: 100%; height: 100%;\" src='../static/human_exp_images/practice_img/01_1.png' class=''></img></div>\n\n        </div>","response":null,"trial_type":"html-keyboard-response","trial_index":11,"time_elapsed":16283,"internal_node_id":"0.0-4.0-3.1"},{"rt":null,"trial_type":"image-click","trial_index":12,"time_elapsed":16678,"internal_node_id":"0.0-4.0-0.2"},{"rt":971,"response":3,"all_choices":["../static/human_exp_images/practice_img/02_1.png","../static/human_exp_images/practice_img/02_0.png","../static/human_exp_images/practice_img/02_2.png","../static/human_exp_images/practice_img/02_3.png"],"task":"response","correct_response":3,"shuffled_array":[1,0,2,3],"catch_trial":false,"trial_type":"image-click","trial_index":13,"time_elapsed":17650,"internal_node_id":"0.0-4.0-1.2","mouse_tracking_data":[{"x":1046,"y":471,"t":1,"event":"mousemove"},{"x":1031,"y":464,"t":14,"event":"mousemove"},{"x":1024,"y":461,"t":31,"event":"mousemove"},{"x":1015,"y":455,"t":48,"event":"mousemove"},{"x":1008,"y":452,"t":63,"event":"mousemove"},{"x":1003,"y":450,"t":81,"event":"mousemove"},{"x":1000,"y":450,"t":97,"event":"mousemove"},{"x":998,"y":450,"t":115,"event":"mousemove"},{"x":1004,"y":466,"t":639,"event":"mousemove"},{"x":1017,"y":489,"t":641,"event":"mousemove"},{"x":1052,"y":538,"t":658,"event":"mousemove"},{"x":1087,"y":584,"t":675,"event":"mousemove"},{"x":1103,"y":600,"t":690,"event":"mousemove"},{"x":1108,"y":609,"t":708,"event":"mousemove"},{"x":1112,"y":612,"t":724,"event":"mousemove"},{"x":1115,"y":614,"t":741,"event":"mousemove"},{"x":1117,"y":618,"t":758,"event":"mousemove"},{"x":1117,"y":619,"t":776,"event":"mousemove"},{"x":1117,"y":621,"t":805,"event":"mousemove"},{"x":1117,"y":623,"t":833,"event":"mousemove"},{"x":1117,"y":624,"t":871,"event":"mousemove"}],"mouse_tracking_targets":{},"correct":true},{"rt":1248,"stimulus":"<p>How confident are you about your choice ? (click on the bar)</p>","slider_start":50,"response":100,"trial_type":"html-slider-response","trial_index":14,"time_elapsed":18900,"internal_node_id":"0.0-4.0-2.2"},{"rt":null,"stimulus":"\n        <div id='jspsych-image' style='position: relative; width: min(80vw, 80vh); height: min(80vw, 80vh);'>\n                \n                <div style='position: absolute; top: 40%; left: 30%; bottom: 40%; right: 30%;'><h1 style='font-size: 60px; color: green;'>Correct!</h1></div>\n                \n                <div class='jspsych-image' id='jspsych-image-0' data-choice='0' style='top: 0;     left: 0;'><img style=\"width: 100%; height: 100%;\" src='../static/human_exp_images/practice_img/02_1.png' class=''></img></div>\n                <div class='jspsych-image' id='jspsych-image-1' data-choice='1' style='top: 0;     right: 0;'><img style=\"width: 100%; height: 100%;\" src='../static/human_exp_images/practice_img/02_0.png' class=''></img></div>\n                <div class='jspsych-image' id='jspsych-image-2' data-choice='2' style='bottom: 0;  left: 0;'><img style=\"width: 100%; height: 100%;\" src='../static/human_exp_images/practice_img/02_2.png' class=''></img></div>\n                <div class='jspsych-image' id='jspsych-image-3' data-choice='3' style='bottom: 0;  right: 0;'><img style=\"width: 100%; height: 100%;\" src='../static/human_exp_images/practice_img/02_3.png' class='correct-choice'></img></div>\n\n        </div>","response":null,"trial_type":"html-keyboard-response","trial_index":15,"time_elapsed":20403,"internal_node_id":"0.0-4.0-3.2"}]