[{"rt":null,"trial_type":"image-click","trial_index":4,"time_elapsed":7030,"internal_node_id":"0.0-4.0-0.0"},{"rt":882,"response":1,"all_choices":["../static/human_exp_images/practice_img/00_2.png","../static/human_exp_images/practice_img/00_3.png","../static/human_exp_images/practice_img/00_1.png","../static/human_exp_images/practice_img/00_0.png"],"task":"response","correct_response":1,"shuffled_array":[2,3,1,0],"catch_trial":false,"trial_type":"image-click","trial_index":5,"time_elapsed":7913,"internal_node_id":"0.0-4.0-1.0","mouse_tracking_data":[{"x":941,"y":544,"t":0,"event":"mousemove"},{"x":941,"y":542,"t":16,"event":"mousemove"},{"x":941,"y":541,"t":50,"event":"mousemove"},{"x":941,"y":539,"t":76,"event":"mousemove"},{"x":941,"y":537,"t":87,"event":"mousemove"},{"x":941,"y":536,"t":99,"event":"mousemove"},{"x":941,"y":530,"t":116,"event":"mousemove"},{"x":941,"y":527,"t":132,"event":"mousemove"},{"x":941,"y":524,"t":149,"event":"mousemove"},{"x":941,"y":520,"t":166,"event":"mousemove"},{"x":941,"y":517,"t":183,"event":"mousemove"},{"x":941,"y":510,"t":199,"event":"mousemove"},{"x":941,"y":507,"t":216,"event":"mousemove"},{"x":941,"y":503,"t":233,"event":"mousemove"},{"x":941,"y":500,"t":248,"event":"mousemove"},{"x":942,"y":500,"t":543,"event":"mousemove"},{"x":946,"y":500,"t":545,"event":"mousemove"},{"x":983,"y":448,"t":560,"event":"mousemove"},{"x":1010,"y":407,"t":578,"event":"mousemove"},{"x":1061,"y":357,"t":594,"event":"mousemove"},{"x":1102,"y":312,"t":611,"event":"mousemove"},{"x":1124,"y":293,"t":626,"event":"mousemove"},{"x":1141,"y":285,"t":644,"event":"mousemove"},{"x":1152,"y":279,"t":661,"event":"mousemove"},{"x":1161,"y":274,"t":677,"event":"mousemove"},{"x":1169,"y":271,"t":694,"event":"mousemove"},{"x":1178,"y":267,"t":710,"event":"mousemove"},{"x":1180,"y":266,"t":727,"event":"mousemove"},{"x":1181,"y":264,"t":744,"event":"mousemove"},{"x":1181,"y":262,"t":834,"event":"mousemove"}],"mouse_tracking_targets":{},"correct":true},{"rt":1562,"stimulus":"<p>How confident are you about your choice ? (click on the bar)</p>","slider_start":50,"response":99,"trial_type":"html-slider-response","trial_index":6,"time_elapsed":9479,"internal_node_id":"0.0-4.0-2.0"},{"rt":null,"stimulus":"\n        <div id='jspsych-image' style='position: relative; width: min(80vw, 80vh); height: min(80vw, 80vh);'>\n                \n                <div style='position: absolute; top: 40%; left: 30%; bottom: 40%; right: 30%;'><h1 style='font-size: 60px; color: green;'>Correct!</h1></div>\n                \n                <div class='jspsych-image' id='jspsych-image-0' data-choice='0' style='top: 0;     left: 0;'><img style=\"width: 100%; height: 100%;\" src='../static/human_exp_images/practice_img/00_2.png' class=''></img></div>\n                <div class='jspsych-image' id='jspsych-image-1' data-choice='1' style='top: 0;     right: 0;'><img style=\"width: 100%; height: 100%;\" src='../static/human_exp_images/practice_img/00_3.png' class='correct-choice'></img></div>\n                <div class='jspsych-image' id='jspsych-image-2' data-choice='2' style='bottom: 0;  left: 0;'><img style=\"width: 100%; height: 100%;\" src='../static/human_exp_images/practice_img/00_1.png' class=''></img></div>\n                <div class='jspsych-image' id='jspsych-image-3' data-choice='3' style='bottom: 0;  right: 0;'><img style=\"width: 100%; height: 100%;\" src='../static/human_exp_images/practice_img/00_0.png' class=''></img></div>\n\n        </div>","response":null,"trial_type":"html-keyboard-response","trial_index":7,"time_elapsed":10984,"internal_node_id":"0.0-4.0-3.0"},{"rt":null,"trial_type":"image-click","trial_index":8,"time_elapsed":11505,"internal_node_id":"0.0-4.0-0.1"},{"rt":1049,"response":3,"all_choices":["../static/human_exp_images/practice_img/01_1.png","../static/human_exp_images/practice_img/01_0.png","../static/human_exp_images/practice_img/01_2.png","../static/human_exp_images/practice_img/01_3.png"],"task":"response","correct_response":3,"shuffled_array":[1,0,2,3],"catch_trial":false,"trial_type":"image-click","trial_index":9,"time_elapsed":12555,"internal_node_id":"0.0-4.0-1.1","mouse_tracking_data":[{"x":1050,"y":449,"t":0,"event":"mousemove"},{"x":1034,"y":449,"t":16,"event":"mousemove"},{"x":1027,"y":449,"t":31,"event":"mousemove"},{"x":1024,"y":449,"t":48,"event":"mousemove"},{"x":1021,"y":449,"t":65,"event":"mousemove"},{"x":1021,"y":447,"t":408,"event":"mousemove"},{"x":1021,"y":445,"t":429,"event":"mousemove"},{"x":1021,"y":444,"t":447,"event":"mousemove"},{"x":1015,"y":444,"t":575,"event":"mousemove"},{"x":1014,"y":444,"t":578,"event":"mousemove"},{"x":1010,"y":444,"t":583,"event":"mousemove"},{"x":1007,"y":444,"t":592,"event":"mousemove"},{"x":1003,"y":444,"t":602,"event":"mousemove"},{"x":1003,"y":445,"t":603,"event":"mousemove"},{"x":1000,"y":447,"t":619,"event":"mousemove"},{"x":1000,"y":449,"t":637,"event":"mousemove"},{"x":1000,"y":451,"t":653,"event":"mousemove"},{"x":1000,"y":452,"t":670,"event":"mousemove"},{"x":1000,"y":457,"t":685,"event":"mousemove"},{"x":1000,"y":468,"t":703,"event":"mousemove"},{"x":1000,"y":490,"t":720,"event":"mousemove"},{"x":1016,"y":513,"t":736,"event":"mousemove"},{"x":1057,"y":560,"t":753,"event":"mousemove"},{"x":1097,"y":603,"t":769,"event":"mousemove"},{"x":1123,"y":629,"t":786,"event":"mousemove"},{"x":1137,"y":640,"t":803,"event":"mousemove"},{"x":1143,"y":646,"t":820,"event":"mousemove"},{"x":1150,"y":649,"t":836,"event":"mousemove"},{"x":1150,"y":651,"t":853,"event":"mousemove"},{"x":1153,"y":653,"t":869,"event":"mousemove"},{"x":1155,"y":653,"t":887,"event":"mousemove"}],"mouse_tracking_targets":{},"correct":true},{"rt":838,"stimulus":"<p>How confident are you about your choice ? (click on the bar)</p>","slider_start":50,"response":100,"trial_type":"html-slider-response","trial_index":10,"time_elapsed":13395,"internal_node_id":"0.0-4.0-2.1"},{"rt":null,"stimulus":"\n        <div id='jspsych-image' style='position: relative; width: min(80vw, 80vh); height: min(80vw, 80vh);'>\n                \n                <div style='position: absolute; top: 40%; left: 30%; bottom: 40%; right: 30%;'><h1 style='font-size: 60px; color: green;'>Correct!</h1></div>\n                \n                <div class='jspsych-image' id='jspsych-image-0' data-choice='0' style='top: 0;     left: 0;'><img style=\"width: 100%; height: 100%;\" src='../static/human_exp_images/practice_img/01_1.png' class=''></img></div>\n                <div class='jspsych-image' id='jspsych-image-1' data-choice='1' style='top: 0;     right: 0;'><img style=\"width: 100%; height: 100%;\" src='../static/human_exp_images/practice_img/01_0.png' class=''></img></div>\n                <div class='jspsych-image' id='jspsych-image-2' data-choice='2' style='bottom: 0;  left: 0;'><img style=\"width: 100%; height: 100%;\" src='../static/human_exp_images/practice_img/01_2.png' class=''></img></div>\n                <div class='jspsych-image' id='jspsych-image-3' data-choice='3' style='bottom: 0;  right: 0;'><img style=\"width: 100%; height: 100%;\" src='../static/human_exp_images/practice_img/01_3.png' class='correct-choice'></img></div>\n\n        </div>","response":null,"trial_type":"html-keyboard-response","trial_index":11,"time_elapsed":14899,"internal_node_id":"0.0-4.0-3.1"},{"rt":null,"trial_type":"image-click","trial_index":12,"time_elapsed":15339,"internal_node_id":"0.0-4.0-0.2"},{"rt":1069,"response":0,"all_choices":["../static/human_exp_images/practice_img/02_3.png","../static/human_exp_images/practice_img/02_2.png","../static/human_exp_images/practice_img/02_0.png","../static/human_exp_images/practice_img/02_1.png"],"task":"response","correct_response":0,"shuffled_array":[3,2,0,1],"catch_trial":false,"trial_type":"image-click","trial_index":13,"time_elapsed":16409,"internal_node_id":"0.0-4.0-1.2","mouse_tracking_data":[{"x":1051,"y":484,"t":2,"event":"mousemove"},{"x":1045,"y":484,"t":15,"event":"mousemove"},{"x":1039,"y":484,"t":31,"event":"mousemove"},{"x":1038,"y":484,"t":48,"event":"mousemove"},{"x":1042,"y":484,"t":372,"event":"mousemove"},{"x":1044,"y":484,"t":374,"event":"mousemove"},{"x":1052,"y":490,"t":390,"event":"mousemove"},{"x":1065,"y":502,"t":407,"event":"mousemove"},{"x":1077,"y":513,"t":423,"event":"mousemove"},{"x":1086,"y":519,"t":440,"event":"mousemove"},{"x":1089,"y":522,"t":457,"event":"mousemove"},{"x":1091,"y":524,"t":474,"event":"mousemove"},{"x":1084,"y":524,"t":636,"event":"mousemove"},{"x":1081,"y":524,"t":641,"event":"mousemove"},{"x":1071,"y":516,"t":645,"event":"mousemove"},{"x":1059,"y":512,"t":646,"event":"mousemove"},{"x":1031,"y":485,"t":662,"event":"mousemove"},{"x":984,"y":441,"t":679,"event":"mousemove"},{"x":940,"y":390,"t":695,"event":"mousemove"},{"x":895,"y":348,"t":712,"event":"mousemove"},{"x":864,"y":321,"t":728,"event":"mousemove"},{"x":837,"y":290,"t":745,"event":"mousemove"},{"x":824,"y":280,"t":762,"event":"mousemove"},{"x":801,"y":264,"t":778,"event":"mousemove"},{"x":787,"y":254,"t":796,"event":"mousemove"},{"x":778,"y":249,"t":812,"event":"mousemove"},{"x":769,"y":243,"t":829,"event":"mousemove"},{"x":764,"y":242,"t":845,"event":"mousemove"},{"x":761,"y":242,"t":863,"event":"mousemove"},{"x":759,"y":242,"t":902,"event":"mousemove"}],"mouse_tracking_targets":{},"correct":true},{"rt":1293,"stimulus":"<p>How confident are you about your choice ? (click on the bar)</p>","slider_start":50,"response":100,"trial_type":"html-slider-response","trial_index":14,"time_elapsed":17704,"internal_node_id":"0.0-4.0-2.2"},{"rt":null,"stimulus":"\n        <div id='jspsych-image' style='position: relative; width: min(80vw, 80vh); height: min(80vw, 80vh);'>\n                \n                <div style='position: absolute; top: 40%; left: 30%; bottom: 40%; right: 30%;'><h1 style='font-size: 60px; color: green;'>Correct!</h1></div>\n                \n                <div class='jspsych-image' id='jspsych-image-0' data-choice='0' style='top: 0;     left: 0;'><img style=\"width: 100%; height: 100%;\" src='../static/human_exp_images/practice_img/02_3.png' class='correct-choice'></img></div>\n                <div class='jspsych-image' id='jspsych-image-1' data-choice='1' style='top: 0;     right: 0;'><img style=\"width: 100%; height: 100%;\" src='../static/human_exp_images/practice_img/02_2.png' class=''></img></div>\n                <div class='jspsych-image' id='jspsych-image-2' data-choice='2' style='bottom: 0;  left: 0;'><img style=\"width: 100%; height: 100%;\" src='../static/human_exp_images/practice_img/02_0.png' class=''></img></div>\n                <div class='jspsych-image' id='jspsych-image-3' data-choice='3' style='bottom: 0;  right: 0;'><img style=\"width: 100%; height: 100%;\" src='../static/human_exp_images/practice_img/02_1.png' class=''></img></div>\n\n        </div>","response":null,"trial_type":"html-keyboard-response","trial_index":15,"time_elapsed":19209,"internal_node_id":"0.0-4.0-3.2"}]