[{"success":true,"timeout":false,"failed_images":[],"failed_audio":[],"failed_video":[],"trial_type":"preload","trial_index":0,"time_elapsed":31,"internal_node_id":"0.0-0.0"},{"rt":835,"stimulus":"<p style='font-size: 40px'>Welcome to the experiment.</p><p style='font-size: 30px'>Press any key to begin.</p>","response":" ","trial_type":"html-keyboard-response","trial_index":1,"time_elapsed":867,"internal_node_id":"0.0-1.0"},{"rt":345,"stimulus":"\n    <p>In this experiment, 4 images will appear on the screen. 3 out of 4 images were generated with a certain rule while one image (the odd one out) does not respect this rule. Select the odd one out by clicking on the image.</p>\n    <p>Following your choice, you will be asked to rate how confident you were about your choice on a scale from 1 to 100. Then, you will receive feedback on the trial.</p>\n    <p>For each rule you will perform 20 trials. You will be notified at each rule change. </p>\n    <p> Press any button to continue </p>\n    <div style='margin: auto; position: relative; width: 400px; height: 400px;'>\n        <div style='position: absolute; top: 0;     left: 0; '><img src='../static/img/square.png'></img></div>\n        <div style='position: absolute; top: 0;     right: 0;'><img src='../static/img/square.png'></img></div>\n        <div style='position: absolute; bottom: 0;  left: 0; '><img src='../static/img/square.png'></img></div>\n        <div style='position: absolute; bottom: 0;  right: 0;'><img src='../static/img/square.png'></img></div>\n    </div>\n","response":" ","trial_type":"html-keyboard-response","trial_index":2,"time_elapsed":1215,"internal_node_id":"0.0-2.0"},{"rt":458,"stimulus":"<h1 style='font-size: 60px'>New Rule!</h1> <p>Press any key to begin.</p>","response":" ","trial_type":"html-keyboard-response","trial_index":3,"time_elapsed":3675,"internal_node_id":"0.0-3.0"},{"rt":984,"response":3,"all_choices":["../static/human_exp_images/task_shape/00_1.png","../static/human_exp_images/task_shape/00_3.png","../static/human_exp_images/task_shape/00_2.png","../static/human_exp_images/task_shape/00_0.png"],"task":"response","correct_response":1,"shuffled_array":[1,3,2,0],"trial_type":"image-click","trial_index":4,"time_elapsed":4663,"internal_node_id":"0.0-4.0-0.0","mouse_tracking_data":[{"x":946,"y":599,"t":607,"event":"mousemove"},{"x":955,"y":599,"t":615,"event":"mousemove"},{"x":959,"y":599,"t":616,"event":"mousemove"},{"x":984,"y":599,"t":632,"event":"mousemove"},{"x":1004,"y":599,"t":649,"event":"mousemove"},{"x":1023,"y":599,"t":665,"event":"mousemove"},{"x":1039,"y":599,"t":683,"event":"mousemove"},{"x":1054,"y":599,"t":699,"event":"mousemove"},{"x":1066,"y":599,"t":716,"event":"mousemove"},{"x":1082,"y":601,"t":732,"event":"mousemove"},{"x":1094,"y":602,"t":749,"event":"mousemove"},{"x":1099,"y":604,"t":766,"event":"mousemove"},{"x":1109,"y":607,"t":782,"event":"mousemove"},{"x":1118,"y":607,"t":799,"event":"mousemove"},{"x":1126,"y":609,"t":815,"event":"mousemove"},{"x":1133,"y":611,"t":832,"event":"mousemove"},{"x":1138,"y":613,"t":849,"event":"mousemove"},{"x":1140,"y":613,"t":866,"event":"mousemove"},{"x":1141,"y":613,"t":882,"event":"mousemove"}],"mouse_tracking_targets":{},"correct":false},{"rt":1073,"stimulus":"<p>How confident are you about your choice ?</p>","slider_start":50,"response":50,"trial_type":"html-slider-response","trial_index":5,"time_elapsed":5738,"internal_node_id":"0.0-4.0-1.0"},{"rt":null,"stimulus":"\n        <div id='jspsych-image' style='position: relative; width: min(80vw, 80vh); height: min(80vw, 80vh);'>\n                \n                <div style='position: absolute; top: 40%; left: 30%; bottom: 40%; right: 30%;'><h1 style='font-size: 60px; color: red'>Wrong</h1></div>\n                \n                <div class='jspsych-image' id='jspsych-image-0' data-choice='0' style='top: 0;     left: 0;'><img style=\"max-width: 100%; max-height: 100%;\" src='../static/human_exp_images/task_shape/00_1.png' class=''></img></div>\n                <div class='jspsych-image' id='jspsych-image-1' data-choice='1' style='top: 0;     right: 0;'><img style=\"max-width: 100%; max-height: 100%;\" src='../static/human_exp_images/task_shape/00_3.png' class='correct-choice'></img></div>\n                <div class='jspsych-image' id='jspsych-image-2' data-choice='2' style='bottom: 0;  left: 0;'><img style=\"max-width: 100%; max-height: 100%;\" src='../static/human_exp_images/task_shape/00_2.png' class=''></img></div>\n                <div class='jspsych-image' id='jspsych-image-3' data-choice='3' style='bottom: 0;  right: 0;'><img style=\"max-width: 100%; max-height: 100%;\" src='../static/human_exp_images/task_shape/00_0.png' class='wrong-choice'></img></div>\n\n        </div>","response":null,"trial_type":"html-keyboard-response","trial_index":6,"time_elapsed":8243,"internal_node_id":"0.0-4.0-2.0"},{"rt":986,"stimulus":"<p>You responded correctly on 0% of the trials.</p>\n    <p>Your average response time was NaNms.</p>\n    <p>Press any key to complete the experiment. Thank you!</p>","response":" ","trial_type":"html-keyboard-response","trial_index":7,"time_elapsed":9234,"internal_node_id":"0.0-5.0","interactions":"[]"}]