[{"success":true,"timeout":false,"failed_images":[],"failed_audio":[],"failed_video":[],"trial_type":"preload","trial_index":0,"time_elapsed":147,"internal_node_id":"0.0-0.0"},{"rt":785,"stimulus":"<p style='font-size: 40px'>Welcome to the experiment.</p><p style='font-size: 30px'>Press any key to begin.</p>","response":" ","trial_type":"html-keyboard-response","trial_index":1,"time_elapsed":933,"internal_node_id":"0.0-1.0"},{"rt":1781,"stimulus":"\n    <p>In this experiment, 4 images will appear on the screen. 3 out of 4 images were generated with a certain rule while one image (the odd one out) does not respect this rule. Select the odd one out by clicking on the image.</p>\n    <p>Following your choice, you will be asked to rate how confident you were about your choice on a scale from 1 to 100. Then, you will receive feedback on the trial.</p>\n    <p>For each rule you will perform 20 trials. You will be notified at each rule change. </p>\n    <p> Press any button to continue </p>\n    <div style='margin: auto; position: relative; width: 400px; height: 400px;'>\n        <div style='position: absolute; top: 0;     left: 0; '><img src='../static/img/square.png'></img></div>\n        <div style='position: absolute; top: 0;     right: 0;'><img src='../static/img/square.png'></img></div>\n        <div style='position: absolute; bottom: 0;  left: 0; '><img src='../static/img/square.png'></img></div>\n        <div style='position: absolute; bottom: 0;  right: 0;'><img src='../static/img/square.png'></img></div>\n    </div>\n","response":" ","trial_type":"html-keyboard-response","trial_index":2,"time_elapsed":2717,"internal_node_id":"0.0-2.0"},{"rt":797,"stimulus":"<h1 style='font-size: 60px'>New Rule!</h1> <p>Press any key to begin.</p>","response":" ","trial_type":"html-keyboard-response","trial_index":3,"time_elapsed":5516,"internal_node_id":"0.0-3.0"},{"rt":null,"trial_type":"image-click","trial_index":4,"time_elapsed":5954,"internal_node_id":"0.0-4.0-0.0"},{"rt":1497,"response":3,"all_choices":["../static/human_exp_images/task_pos/00_2.png","../static/human_exp_images/task_pos/00_3.png","../static/human_exp_images/task_pos/00_1.png","../static/human_exp_images/task_pos/00_0.png"],"task":"response","correct_response":1,"shuffled_array":[2,3,1,0],"trial_type":"image-click","trial_index":5,"time_elapsed":7453,"internal_node_id":"0.0-4.0-1.0","mouse_tracking_data":[{"x":924,"y":461,"t":0,"event":"mousemove"},{"x":910,"y":439,"t":14,"event":"mousemove"},{"x":893,"y":412,"t":31,"event":"mousemove"},{"x":884,"y":396,"t":48,"event":"mousemove"},{"x":882,"y":395,"t":65,"event":"mousemove"},{"x":881,"y":395,"t":81,"event":"mousemove"},{"x":881,"y":393,"t":98,"event":"mousemove"},{"x":879,"y":393,"t":142,"event":"mousemove"},{"x":882,"y":393,"t":715,"event":"mousemove"},{"x":884,"y":393,"t":724,"event":"mousemove"},{"x":885,"y":393,"t":733,"event":"mousemove"},{"x":889,"y":393,"t":1156,"event":"mousemove"},{"x":893,"y":393,"t":1157,"event":"mousemove"},{"x":919,"y":406,"t":1173,"event":"mousemove"},{"x":960,"y":438,"t":1190,"event":"mousemove"},{"x":985,"y":460,"t":1206,"event":"mousemove"},{"x":1017,"y":487,"t":1223,"event":"mousemove"},{"x":1039,"y":507,"t":1239,"event":"mousemove"},{"x":1055,"y":521,"t":1257,"event":"mousemove"},{"x":1066,"y":530,"t":1273,"event":"mousemove"},{"x":1069,"y":537,"t":1289,"event":"mousemove"},{"x":1072,"y":541,"t":1306,"event":"mousemove"},{"x":1072,"y":544,"t":1323,"event":"mousemove"},{"x":1072,"y":545,"t":1340,"event":"mousemove"},{"x":1072,"y":546,"t":1356,"event":"mousemove"},{"x":1073,"y":552,"t":1373,"event":"mousemove"},{"x":1073,"y":556,"t":1390,"event":"mousemove"},{"x":1073,"y":559,"t":1407,"event":"mousemove"},{"x":1075,"y":559,"t":1423,"event":"mousemove"}],"mouse_tracking_targets":{},"correct":false},{"rt":937,"stimulus":"<p>How confident are you about your choice ?</p>","slider_start":50,"response":50,"trial_type":"html-slider-response","trial_index":6,"time_elapsed":8392,"internal_node_id":"0.0-4.0-2.0"},{"rt":null,"stimulus":"\n        <div id='jspsych-image' style='position: relative; width: min(80vw, 80vh); height: min(80vw, 80vh);'>\n                \n                <div style='position: absolute; top: 40%; left: 30%; bottom: 40%; right: 30%;'><h1 style='font-size: 60px; color: red'>Wrong</h1></div>\n                \n                <div class='jspsych-image' id='jspsych-image-0' data-choice='0' style='top: 0;     left: 0;'><img style=\"max-width: 100%; max-height: 100%;\" src='../static/human_exp_images/task_pos/00_2.png' class=''></img></div>\n                <div class='jspsych-image' id='jspsych-image-1' data-choice='1' style='top: 0;     right: 0;'><img style=\"max-width: 100%; max-height: 100%;\" src='../static/human_exp_images/task_pos/00_3.png' class='correct-choice'></img></div>\n                <div class='jspsych-image' id='jspsych-image-2' data-choice='2' style='bottom: 0;  left: 0;'><img style=\"max-width: 100%; max-height: 100%;\" src='../static/human_exp_images/task_pos/00_1.png' class=''></img></div>\n                <div class='jspsych-image' id='jspsych-image-3' data-choice='3' style='bottom: 0;  right: 0;'><img style=\"max-width: 100%; max-height: 100%;\" src='../static/human_exp_images/task_pos/00_0.png' class='wrong-choice'></img></div>\n\n        </div>","response":null,"trial_type":"html-keyboard-response","trial_index":7,"time_elapsed":10897,"internal_node_id":"0.0-4.0-3.0"},{"rt":null,"trial_type":"image-click","trial_index":8,"time_elapsed":10901,"internal_node_id":"0.0-4.0-0.1"},{"rt":1433,"response":3,"all_choices":["../static/human_exp_images/task_pos/01_2.png","../static/human_exp_images/task_pos/01_0.png","../static/human_exp_images/task_pos/01_1.png","../static/human_exp_images/task_pos/01_3.png"],"task":"response","correct_response":3,"shuffled_array":[2,0,1,3],"trial_type":"image-click","trial_index":9,"time_elapsed":12336,"internal_node_id":"0.0-4.0-1.1","mouse_tracking_data":[{"x":881,"y":389,"t":28,"event":"mousemove"},{"x":881,"y":391,"t":121,"event":"mousemove"},{"x":881,"y":391,"t":389,"event":"mousemove"},{"x":881,"y":393,"t":399,"event":"mousemove"},{"x":881,"y":395,"t":407,"event":"mousemove"},{"x":881,"y":396,"t":425,"event":"mousemove"},{"x":881,"y":398,"t":444,"event":"mousemove"},{"x":881,"y":400,"t":562,"event":"mousemove"},{"x":881,"y":402,"t":641,"event":"mousemove"},{"x":881,"y":402,"t":652,"event":"mousemove"},{"x":881,"y":404,"t":659,"event":"mousemove"},{"x":881,"y":406,"t":662,"event":"mousemove"},{"x":881,"y":407,"t":667,"event":"mousemove"},{"x":881,"y":409,"t":672,"event":"mousemove"},{"x":881,"y":413,"t":676,"event":"mousemove"},{"x":881,"y":413,"t":677,"event":"mousemove"},{"x":881,"y":417,"t":687,"event":"mousemove"},{"x":881,"y":420,"t":695,"event":"mousemove"},{"x":881,"y":422,"t":699,"event":"mousemove"},{"x":881,"y":424,"t":705,"event":"mousemove"},{"x":881,"y":426,"t":709,"event":"mousemove"},{"x":881,"y":428,"t":714,"event":"mousemove"},{"x":881,"y":431,"t":724,"event":"mousemove"},{"x":881,"y":433,"t":731,"event":"mousemove"},{"x":881,"y":434,"t":734,"event":"mousemove"},{"x":881,"y":435,"t":750,"event":"mousemove"},{"x":881,"y":437,"t":751,"event":"mousemove"},{"x":881,"y":440,"t":768,"event":"mousemove"},{"x":881,"y":456,"t":785,"event":"mousemove"},{"x":896,"y":492,"t":801,"event":"mousemove"},{"x":930,"y":551,"t":818,"event":"mousemove"},{"x":985,"y":634,"t":834,"event":"mousemove"},{"x":1001,"y":661,"t":851,"event":"mousemove"},{"x":1036,"y":697,"t":868,"event":"mousemove"},{"x":1058,"y":703,"t":884,"event":"mousemove"},{"x":1069,"y":703,"t":900,"event":"mousemove"},{"x":1093,"y":703,"t":918,"event":"mousemove"},{"x":1110,"y":703,"t":935,"event":"mousemove"},{"x":1121,"y":703,"t":951,"event":"mousemove"},{"x":1128,"y":703,"t":968,"event":"mousemove"},{"x":1132,"y":703,"t":984,"event":"mousemove"},{"x":1134,"y":703,"t":1002,"event":"mousemove"},{"x":1135,"y":703,"t":1017,"event":"mousemove"},{"x":1135,"y":701,"t":1153,"event":"mousemove"},{"x":1135,"y":699,"t":1181,"event":"mousemove"},{"x":1135,"y":699,"t":1191,"event":"mousemove"},{"x":1135,"y":695,"t":1200,"event":"mousemove"},{"x":1135,"y":694,"t":1202,"event":"mousemove"},{"x":1135,"y":688,"t":1208,"event":"mousemove"},{"x":1135,"y":684,"t":1212,"event":"mousemove"},{"x":1135,"y":678,"t":1217,"event":"mousemove"},{"x":1135,"y":675,"t":1219,"event":"mousemove"},{"x":1135,"y":657,"t":1235,"event":"mousemove"},{"x":1135,"y":646,"t":1252,"event":"mousemove"},{"x":1135,"y":635,"t":1268,"event":"mousemove"},{"x":1134,"y":631,"t":1285,"event":"mousemove"},{"x":1132,"y":628,"t":1301,"event":"mousemove"},{"x":1132,"y":626,"t":1319,"event":"mousemove"},{"x":1130,"y":626,"t":1415,"event":"mousemove"}],"mouse_tracking_targets":{},"correct":true},{"rt":1338,"stimulus":"<p>How confident are you about your choice ?</p>","slider_start":50,"response":50,"trial_type":"html-slider-response","trial_index":10,"time_elapsed":13677,"internal_node_id":"0.0-4.0-2.1"},{"rt":null,"stimulus":"\n        <div id='jspsych-image' style='position: relative; width: min(80vw, 80vh); height: min(80vw, 80vh);'>\n                \n                <div style='position: absolute; top: 40%; left: 30%; bottom: 40%; right: 30%;'><h1 style='font-size: 60px; color: green;'>Correct!</h1></div>\n                \n                <div class='jspsych-image' id='jspsych-image-0' data-choice='0' style='top: 0;     left: 0;'><img style=\"max-width: 100%; max-height: 100%;\" src='../static/human_exp_images/task_pos/01_2.png' class=''></img></div>\n                <div class='jspsych-image' id='jspsych-image-1' data-choice='1' style='top: 0;     right: 0;'><img style=\"max-width: 100%; max-height: 100%;\" src='../static/human_exp_images/task_pos/01_0.png' class=''></img></div>\n                <div class='jspsych-image' id='jspsych-image-2' data-choice='2' style='bottom: 0;  left: 0;'><img style=\"max-width: 100%; max-height: 100%;\" src='../static/human_exp_images/task_pos/01_1.png' class=''></img></div>\n                <div class='jspsych-image' id='jspsych-image-3' data-choice='3' style='bottom: 0;  right: 0;'><img style=\"max-width: 100%; max-height: 100%;\" src='../static/human_exp_images/task_pos/01_3.png' class='correct-choice'></img></div>\n\n        </div>","response":null,"trial_type":"html-keyboard-response","trial_index":11,"time_elapsed":15179,"internal_node_id":"0.0-4.0-3.1"},{"rt":null,"trial_type":"image-click","trial_index":12,"time_elapsed":15313,"internal_node_id":"0.0-4.0-0.2"},{"rt":2247,"response":1,"all_choices":["../static/human_exp_images/task_pos/02_1.png","../static/human_exp_images/task_pos/02_0.png","../static/human_exp_images/task_pos/02_3.png","../static/human_exp_images/task_pos/02_2.png"],"task":"response","correct_response":2,"shuffled_array":[1,0,3,2],"trial_type":"image-click","trial_index":13,"time_elapsed":17563,"internal_node_id":"0.0-4.0-1.2","mouse_tracking_data":[{"x":913,"y":492,"t":1,"event":"mousemove"},{"x":903,"y":463,"t":13,"event":"mousemove"},{"x":891,"y":431,"t":30,"event":"mousemove"},{"x":882,"y":412,"t":46,"event":"mousemove"},{"x":867,"y":390,"t":63,"event":"mousemove"},{"x":849,"y":359,"t":80,"event":"mousemove"},{"x":828,"y":333,"t":97,"event":"mousemove"},{"x":815,"y":315,"t":114,"event":"mousemove"},{"x":800,"y":299,"t":131,"event":"mousemove"},{"x":792,"y":290,"t":148,"event":"mousemove"},{"x":786,"y":284,"t":163,"event":"mousemove"},{"x":773,"y":270,"t":181,"event":"mousemove"},{"x":760,"y":253,"t":196,"event":"mousemove"},{"x":754,"y":242,"t":214,"event":"mousemove"},{"x":752,"y":239,"t":230,"event":"mousemove"},{"x":752,"y":237,"t":247,"event":"mousemove"},{"x":752,"y":242,"t":394,"event":"mousemove"},{"x":752,"y":244,"t":397,"event":"mousemove"},{"x":762,"y":259,"t":414,"event":"mousemove"},{"x":770,"y":269,"t":430,"event":"mousemove"},{"x":776,"y":276,"t":447,"event":"mousemove"},{"x":778,"y":280,"t":463,"event":"mousemove"},{"x":783,"y":284,"t":481,"event":"mousemove"},{"x":787,"y":287,"t":497,"event":"mousemove"},{"x":792,"y":293,"t":514,"event":"mousemove"},{"x":802,"y":303,"t":531,"event":"mousemove"},{"x":816,"y":315,"t":548,"event":"mousemove"},{"x":830,"y":331,"t":564,"event":"mousemove"},{"x":853,"y":352,"t":581,"event":"mousemove"},{"x":869,"y":363,"t":598,"event":"mousemove"},{"x":877,"y":371,"t":613,"event":"mousemove"},{"x":884,"y":378,"t":630,"event":"mousemove"},{"x":888,"y":381,"t":647,"event":"mousemove"},{"x":893,"y":386,"t":664,"event":"mousemove"},{"x":896,"y":387,"t":680,"event":"mousemove"},{"x":900,"y":389,"t":698,"event":"mousemove"},{"x":904,"y":389,"t":714,"event":"mousemove"},{"x":905,"y":389,"t":731,"event":"mousemove"},{"x":907,"y":389,"t":747,"event":"mousemove"},{"x":910,"y":389,"t":764,"event":"mousemove"},{"x":916,"y":389,"t":780,"event":"mousemove"},{"x":921,"y":389,"t":797,"event":"mousemove"},{"x":929,"y":389,"t":814,"event":"mousemove"},{"x":937,"y":389,"t":830,"event":"mousemove"},{"x":946,"y":389,"t":848,"event":"mousemove"},{"x":955,"y":389,"t":864,"event":"mousemove"},{"x":963,"y":387,"t":881,"event":"mousemove"},{"x":974,"y":373,"t":896,"event":"mousemove"},{"x":985,"y":356,"t":913,"event":"mousemove"},{"x":995,"y":335,"t":930,"event":"mousemove"},{"x":1015,"y":294,"t":947,"event":"mousemove"},{"x":1041,"y":230,"t":964,"event":"mousemove"},{"x":1070,"y":175,"t":981,"event":"mousemove"},{"x":1085,"y":149,"t":998,"event":"mousemove"},{"x":1095,"y":138,"t":1014,"event":"mousemove"},{"x":1102,"y":131,"t":1031,"event":"mousemove"},{"x":1106,"y":127,"t":1048,"event":"mousemove"},{"x":1107,"y":127,"t":1065,"event":"mousemove"},{"x":1109,"y":127,"t":1096,"event":"mousemove"},{"x":1109,"y":125,"t":1266,"event":"mousemove"},{"x":1109,"y":129,"t":1472,"event":"mousemove"},{"x":1109,"y":138,"t":1480,"event":"mousemove"},{"x":1107,"y":141,"t":1481,"event":"mousemove"},{"x":1101,"y":154,"t":1488,"event":"mousemove"},{"x":1096,"y":164,"t":1491,"event":"mousemove"},{"x":1085,"y":180,"t":1497,"event":"mousemove"},{"x":1081,"y":188,"t":1502,"event":"mousemove"},{"x":1067,"y":204,"t":1506,"event":"mousemove"},{"x":1061,"y":214,"t":1507,"event":"mousemove"},{"x":1045,"y":236,"t":1515,"event":"mousemove"},{"x":1039,"y":245,"t":1516,"event":"mousemove"},{"x":1029,"y":263,"t":1524,"event":"mousemove"},{"x":1024,"y":269,"t":1527,"event":"mousemove"},{"x":1015,"y":284,"t":1534,"event":"mousemove"},{"x":1011,"y":290,"t":1537,"event":"mousemove"},{"x":1006,"y":298,"t":1543,"event":"mousemove"},{"x":1004,"y":303,"t":1549,"event":"mousemove"},{"x":1002,"y":309,"t":1553,"event":"mousemove"},{"x":999,"y":312,"t":1553,"event":"mousemove"},{"x":995,"y":319,"t":1562,"event":"mousemove"},{"x":995,"y":321,"t":1563,"event":"mousemove"},{"x":991,"y":324,"t":1571,"event":"mousemove"},{"x":991,"y":325,"t":1573,"event":"mousemove"},{"x":989,"y":328,"t":1579,"event":"mousemove"},{"x":989,"y":330,"t":1583,"event":"mousemove"},{"x":988,"y":334,"t":1588,"event":"mousemove"},{"x":986,"y":335,"t":1589,"event":"mousemove"},{"x":986,"y":336,"t":1598,"event":"mousemove"},{"x":985,"y":338,"t":1599,"event":"mousemove"},{"x":984,"y":339,"t":1606,"event":"mousemove"},{"x":982,"y":341,"t":1617,"event":"mousemove"},{"x":982,"y":343,"t":1621,"event":"mousemove"},{"x":980,"y":346,"t":1636,"event":"mousemove"},{"x":978,"y":350,"t":1652,"event":"mousemove"},{"x":977,"y":352,"t":1668,"event":"mousemove"},{"x":974,"y":355,"t":1685,"event":"mousemove"},{"x":974,"y":357,"t":1702,"event":"mousemove"},{"x":973,"y":357,"t":1760,"event":"mousemove"},{"x":973,"y":355,"t":1816,"event":"mousemove"},{"x":973,"y":349,"t":1823,"event":"mousemove"},{"x":973,"y":347,"t":1826,"event":"mousemove"},{"x":973,"y":341,"t":1832,"event":"mousemove"},{"x":973,"y":338,"t":1837,"event":"mousemove"},{"x":973,"y":332,"t":1840,"event":"mousemove"},{"x":974,"y":327,"t":1840,"event":"mousemove"},{"x":979,"y":311,"t":1856,"event":"mousemove"},{"x":985,"y":294,"t":1873,"event":"mousemove"},{"x":994,"y":280,"t":1890,"event":"mousemove"},{"x":1006,"y":261,"t":1907,"event":"mousemove"},{"x":1016,"y":242,"t":1923,"event":"mousemove"},{"x":1020,"y":232,"t":1940,"event":"mousemove"},{"x":1034,"y":194,"t":1958,"event":"mousemove"},{"x":1042,"y":178,"t":1974,"event":"mousemove"},{"x":1048,"y":165,"t":1991,"event":"mousemove"},{"x":1052,"y":159,"t":2007,"event":"mousemove"},{"x":1056,"y":155,"t":2024,"event":"mousemove"}],"mouse_tracking_targets":{},"correct":false},{"rt":2085,"stimulus":"<p>How confident are you about your choice ?</p>","slider_start":50,"response":69,"trial_type":"html-slider-response","trial_index":14,"time_elapsed":19649,"internal_node_id":"0.0-4.0-2.2"},{"rt":null,"stimulus":"\n        <div id='jspsych-image' style='position: relative; width: min(80vw, 80vh); height: min(80vw, 80vh);'>\n                \n                <div style='position: absolute; top: 40%; left: 30%; bottom: 40%; right: 30%;'><h1 style='font-size: 60px; color: red'>Wrong</h1></div>\n                \n                <div class='jspsych-image' id='jspsych-image-0' data-choice='0' style='top: 0;     left: 0;'><img style=\"max-width: 100%; max-height: 100%;\" src='../static/human_exp_images/task_pos/02_1.png' class=''></img></div>\n                <div class='jspsych-image' id='jspsych-image-1' data-choice='1' style='top: 0;     right: 0;'><img style=\"max-width: 100%; max-height: 100%;\" src='../static/human_exp_images/task_pos/02_0.png' class='wrong-choice'></img></div>\n                <div class='jspsych-image' id='jspsych-image-2' data-choice='2' style='bottom: 0;  left: 0;'><img style=\"max-width: 100%; max-height: 100%;\" src='../static/human_exp_images/task_pos/02_3.png' class='correct-choice'></img></div>\n                <div class='jspsych-image' id='jspsych-image-3' data-choice='3' style='bottom: 0;  right: 0;'><img style=\"max-width: 100%; max-height: 100%;\" src='../static/human_exp_images/task_pos/02_2.png' class=''></img></div>\n\n        </div>","response":null,"trial_type":"html-keyboard-response","trial_index":15,"time_elapsed":22153,"internal_node_id":"0.0-4.0-3.2"},{"rt":3050,"stimulus":"<p>You responded correctly on 33% of the trials.</p>\n    <p>Your average response time was 1433ms.</p>\n    <p>Press any key to complete the experiment. Thank you!</p>","response":" ","trial_type":"html-keyboard-response","trial_index":16,"time_elapsed":25204,"internal_node_id":"0.0-5.0","interactions":"[]"}]