[{"rt":null,"trial_type":"image-click","trial_index":19,"time_elapsed":18884,"internal_node_id":"0.0-8.0-0.0"},{"rt":8794,"response":2,"all_choices":["../static/human_exp_images/task_rot/00_0.png","../static/human_exp_images/task_rot/00_1.png","../static/human_exp_images/task_rot/00_3.png","../static/human_exp_images/task_rot/00_2.png"],"task":"response","correct_response":2,"shuffled_array":[0,1,3,2],"catch_trial":false,"trial_type":"image-click","trial_index":20,"time_elapsed":27680,"internal_node_id":"0.0-8.0-1.0","mouse_tracking_data":[{"x":960,"y":431,"t":1,"event":"mousemove"},{"x":851,"y":426,"t":13,"event":"mousemove"},{"x":762,"y":426,"t":30,"event":"mousemove"},{"x":729,"y":426,"t":46,"event":"mousemove"},{"x":720,"y":426,"t":64,"event":"mousemove"},{"x":717,"y":426,"t":79,"event":"mousemove"},{"x":718,"y":426,"t":208,"event":"mousemove"},{"x":722,"y":426,"t":217,"event":"mousemove"},{"x":725,"y":426,"t":229,"event":"mousemove"},{"x":727,"y":426,"t":246,"event":"mousemove"},{"x":729,"y":426,"t":326,"event":"mousemove"},{"x":730,"y":426,"t":1053,"event":"mousemove"},{"x":732,"y":426,"t":1061,"event":"mousemove"},{"x":734,"y":426,"t":1069,"event":"mousemove"},{"x":740,"y":426,"t":1086,"event":"mousemove"},{"x":747,"y":426,"t":1103,"event":"mousemove"},{"x":756,"y":426,"t":1120,"event":"mousemove"},{"x":761,"y":426,"t":1136,"event":"mousemove"},{"x":768,"y":426,"t":1152,"event":"mousemove"},{"x":775,"y":426,"t":1170,"event":"mousemove"},{"x":783,"y":426,"t":1187,"event":"mousemove"},{"x":790,"y":426,"t":1203,"event":"mousemove"},{"x":800,"y":426,"t":1220,"event":"mousemove"},{"x":810,"y":426,"t":1236,"event":"mousemove"},{"x":819,"y":426,"t":1253,"event":"mousemove"},{"x":829,"y":426,"t":1269,"event":"mousemove"},{"x":834,"y":426,"t":1286,"event":"mousemove"},{"x":836,"y":426,"t":1302,"event":"mousemove"},{"x":843,"y":426,"t":1319,"event":"mousemove"},{"x":841,"y":426,"t":8221,"event":"mousemove"},{"x":840,"y":426,"t":8233,"event":"mousemove"},{"x":838,"y":426,"t":8238,"event":"mousemove"},{"x":836,"y":430,"t":8248,"event":"mousemove"},{"x":835,"y":431,"t":8256,"event":"mousemove"},{"x":833,"y":433,"t":8265,"event":"mousemove"},{"x":831,"y":435,"t":8268,"event":"mousemove"},{"x":829,"y":437,"t":8280,"event":"mousemove"},{"x":828,"y":438,"t":8283,"event":"mousemove"},{"x":824,"y":443,"t":8297,"event":"mousemove"},{"x":821,"y":448,"t":8314,"event":"mousemove"},{"x":817,"y":452,"t":8330,"event":"mousemove"},{"x":814,"y":459,"t":8347,"event":"mousemove"},{"x":811,"y":464,"t":8363,"event":"mousemove"},{"x":805,"y":469,"t":8381,"event":"mousemove"},{"x":804,"y":472,"t":8397,"event":"mousemove"},{"x":802,"y":474,"t":8413,"event":"mousemove"},{"x":802,"y":476,"t":8430,"event":"mousemove"},{"x":799,"y":481,"t":8447,"event":"mousemove"},{"x":797,"y":486,"t":8464,"event":"mousemove"},{"x":794,"y":491,"t":8480,"event":"mousemove"},{"x":792,"y":495,"t":8497,"event":"mousemove"},{"x":792,"y":496,"t":8514,"event":"mousemove"},{"x":790,"y":500,"t":8531,"event":"mousemove"},{"x":785,"y":508,"t":8546,"event":"mousemove"},{"x":782,"y":513,"t":8563,"event":"mousemove"},{"x":775,"y":527,"t":8580,"event":"mousemove"},{"x":770,"y":537,"t":8597,"event":"mousemove"},{"x":770,"y":544,"t":8613,"event":"mousemove"},{"x":766,"y":551,"t":8630,"event":"mousemove"},{"x":766,"y":554,"t":8647,"event":"mousemove"},{"x":766,"y":556,"t":8664,"event":"mousemove"},{"x":764,"y":558,"t":8681,"event":"mousemove"},{"x":764,"y":560,"t":8703,"event":"mousemove"},{"x":763,"y":561,"t":8709,"event":"mousemove"},{"x":763,"y":565,"t":8725,"event":"mousemove"},{"x":761,"y":570,"t":8743,"event":"mousemove"},{"x":761,"y":572,"t":8759,"event":"mousemove"},{"x":759,"y":572,"t":8777,"event":"mousemove"}],"mouse_tracking_targets":{},"correct":true},{"rt":1763,"stimulus":"<p>How confident are you about your choice ? (click on the bar)</p>","slider_start":50,"response":93,"trial_type":"html-slider-response","trial_index":21,"time_elapsed":29445,"internal_node_id":"0.0-8.0-2.0"},{"rt":null,"stimulus":"\n        <div id='jspsych-image' style='position: relative; width: min(80vw, 80vh); height: min(80vw, 80vh);'>\n                \n                <div style='position: absolute; top: 40%; left: 30%; bottom: 40%; right: 30%;'><h1 style='font-size: 60px; color: green;'>Correct!</h1></div>\n                \n                <div class='jspsych-image' id='jspsych-image-0' data-choice='0' style='top: 0;     left: 0;'><img style=\"width: 100%; height: 100%;\" src='../static/human_exp_images/task_rot/00_0.png' class=''></img></div>\n                <div class='jspsych-image' id='jspsych-image-1' data-choice='1' style='top: 0;     right: 0;'><img style=\"width: 100%; height: 100%;\" src='../static/human_exp_images/task_rot/00_1.png' class=''></img></div>\n                <div class='jspsych-image' id='jspsych-image-2' data-choice='2' style='bottom: 0;  left: 0;'><img style=\"width: 100%; height: 100%;\" src='../static/human_exp_images/task_rot/00_3.png' class='correct-choice'></img></div>\n                <div class='jspsych-image' id='jspsych-image-3' data-choice='3' style='bottom: 0;  right: 0;'><img style=\"width: 100%; height: 100%;\" src='../static/human_exp_images/task_rot/00_2.png' class=''></img></div>\n\n        </div>","response":null,"trial_type":"html-keyboard-response","trial_index":22,"time_elapsed":30948,"internal_node_id":"0.0-8.0-3.0"},{"rt":null,"trial_type":"image-click","trial_index":23,"time_elapsed":31541,"internal_node_id":"0.0-8.0-0.1"},{"rt":4412,"response":3,"all_choices":["../static/human_exp_images/task_rot/01_2.png","../static/human_exp_images/task_rot/01_1.png","../static/human_exp_images/task_rot/01_0.png","../static/human_exp_images/task_rot/01_3.png"],"task":"response","correct_response":3,"shuffled_array":[2,1,0,3],"catch_trial":false,"trial_type":"image-click","trial_index":24,"time_elapsed":35955,"internal_node_id":"0.0-8.0-1.1","mouse_tracking_data":[{"x":1045,"y":472,"t":1,"event":"mousemove"},{"x":1013,"y":469,"t":13,"event":"mousemove"},{"x":995,"y":467,"t":30,"event":"mousemove"},{"x":985,"y":467,"t":47,"event":"mousemove"},{"x":982,"y":467,"t":64,"event":"mousemove"},{"x":978,"y":467,"t":80,"event":"mousemove"},{"x":977,"y":467,"t":97,"event":"mousemove"},{"x":975,"y":467,"t":137,"event":"mousemove"},{"x":975,"y":466,"t":202,"event":"mousemove"},{"x":975,"y":467,"t":3455,"event":"mousemove"},{"x":975,"y":469,"t":4011,"event":"mousemove"},{"x":975,"y":470,"t":4019,"event":"mousemove"},{"x":975,"y":472,"t":4028,"event":"mousemove"},{"x":975,"y":479,"t":4045,"event":"mousemove"},{"x":975,"y":489,"t":4062,"event":"mousemove"},{"x":975,"y":507,"t":4078,"event":"mousemove"},{"x":975,"y":528,"t":4095,"event":"mousemove"},{"x":975,"y":549,"t":4112,"event":"mousemove"},{"x":986,"y":563,"t":4129,"event":"mousemove"},{"x":1000,"y":578,"t":4145,"event":"mousemove"},{"x":1031,"y":600,"t":4162,"event":"mousemove"},{"x":1061,"y":623,"t":4178,"event":"mousemove"},{"x":1083,"y":639,"t":4196,"event":"mousemove"},{"x":1103,"y":655,"t":4212,"event":"mousemove"},{"x":1122,"y":665,"t":4228,"event":"mousemove"},{"x":1135,"y":674,"t":4246,"event":"mousemove"},{"x":1140,"y":679,"t":4262,"event":"mousemove"},{"x":1145,"y":684,"t":4280,"event":"mousemove"},{"x":1147,"y":686,"t":4296,"event":"mousemove"},{"x":1148,"y":686,"t":4312,"event":"mousemove"}],"mouse_tracking_targets":{},"correct":true},{"rt":1085,"stimulus":"<p>How confident are you about your choice ? (click on the bar)</p>","slider_start":50,"response":99,"trial_type":"html-slider-response","trial_index":25,"time_elapsed":37041,"internal_node_id":"0.0-8.0-2.1"},{"rt":null,"stimulus":"\n        <div id='jspsych-image' style='position: relative; width: min(80vw, 80vh); height: min(80vw, 80vh);'>\n                \n                <div style='position: absolute; top: 40%; left: 30%; bottom: 40%; right: 30%;'><h1 style='font-size: 60px; color: green;'>Correct!</h1></div>\n                \n                <div class='jspsych-image' id='jspsych-image-0' data-choice='0' style='top: 0;     left: 0;'><img style=\"width: 100%; height: 100%;\" src='../static/human_exp_images/task_rot/01_2.png' class=''></img></div>\n                <div class='jspsych-image' id='jspsych-image-1' data-choice='1' style='top: 0;     right: 0;'><img style=\"width: 100%; height: 100%;\" src='../static/human_exp_images/task_rot/01_1.png' class=''></img></div>\n                <div class='jspsych-image' id='jspsych-image-2' data-choice='2' style='bottom: 0;  left: 0;'><img style=\"width: 100%; height: 100%;\" src='../static/human_exp_images/task_rot/01_0.png' class=''></img></div>\n                <div class='jspsych-image' id='jspsych-image-3' data-choice='3' style='bottom: 0;  right: 0;'><img style=\"width: 100%; height: 100%;\" src='../static/human_exp_images/task_rot/01_3.png' class='correct-choice'></img></div>\n\n        </div>","response":null,"trial_type":"html-keyboard-response","trial_index":26,"time_elapsed":38543,"internal_node_id":"0.0-8.0-3.1"},{"rt":null,"trial_type":"image-click","trial_index":27,"time_elapsed":39237,"internal_node_id":"0.0-8.0-0.2"},{"rt":1312,"response":1,"all_choices":["../static/human_exp_images/task_rot/02_0.png","../static/human_exp_images/task_rot/02_3.png","../static/human_exp_images/task_rot/02_2.png","../static/human_exp_images/task_rot/02_1.png"],"task":"response","correct_response":1,"shuffled_array":[0,3,2,1],"catch_trial":false,"trial_type":"image-click","trial_index":28,"time_elapsed":40552,"internal_node_id":"0.0-8.0-1.2","mouse_tracking_data":[{"x":1048,"y":408,"t":1,"event":"mousemove"},{"x":992,"y":401,"t":15,"event":"mousemove"},{"x":954,"y":401,"t":31,"event":"mousemove"},{"x":913,"y":401,"t":48,"event":"mousemove"},{"x":886,"y":401,"t":64,"event":"mousemove"},{"x":845,"y":401,"t":81,"event":"mousemove"},{"x":810,"y":404,"t":98,"event":"mousemove"},{"x":794,"y":408,"t":114,"event":"mousemove"},{"x":785,"y":410,"t":131,"event":"mousemove"},{"x":785,"y":411,"t":168,"event":"mousemove"},{"x":785,"y":413,"t":187,"event":"mousemove"},{"x":785,"y":415,"t":198,"event":"mousemove"},{"x":785,"y":418,"t":215,"event":"mousemove"},{"x":789,"y":422,"t":231,"event":"mousemove"},{"x":799,"y":427,"t":248,"event":"mousemove"},{"x":806,"y":429,"t":264,"event":"mousemove"},{"x":813,"y":429,"t":282,"event":"mousemove"},{"x":818,"y":429,"t":298,"event":"mousemove"},{"x":830,"y":432,"t":315,"event":"mousemove"},{"x":835,"y":434,"t":331,"event":"mousemove"},{"x":845,"y":435,"t":349,"event":"mousemove"},{"x":854,"y":437,"t":365,"event":"mousemove"},{"x":864,"y":439,"t":381,"event":"mousemove"},{"x":871,"y":439,"t":399,"event":"mousemove"},{"x":885,"y":439,"t":415,"event":"mousemove"},{"x":895,"y":439,"t":432,"event":"mousemove"},{"x":910,"y":439,"t":448,"event":"mousemove"},{"x":924,"y":439,"t":465,"event":"mousemove"},{"x":935,"y":439,"t":482,"event":"mousemove"},{"x":943,"y":437,"t":499,"event":"mousemove"},{"x":950,"y":435,"t":514,"event":"mousemove"},{"x":959,"y":434,"t":532,"event":"mousemove"},{"x":965,"y":432,"t":548,"event":"mousemove"},{"x":974,"y":429,"t":565,"event":"mousemove"},{"x":979,"y":427,"t":581,"event":"mousemove"},{"x":988,"y":423,"t":598,"event":"mousemove"},{"x":995,"y":420,"t":615,"event":"mousemove"},{"x":1010,"y":415,"t":632,"event":"mousemove"},{"x":1031,"y":402,"t":648,"event":"mousemove"},{"x":1053,"y":390,"t":664,"event":"mousemove"},{"x":1074,"y":370,"t":682,"event":"mousemove"},{"x":1092,"y":355,"t":698,"event":"mousemove"},{"x":1110,"y":336,"t":715,"event":"mousemove"},{"x":1126,"y":319,"t":731,"event":"mousemove"},{"x":1137,"y":307,"t":748,"event":"mousemove"},{"x":1148,"y":294,"t":766,"event":"mousemove"},{"x":1161,"y":282,"t":782,"event":"mousemove"},{"x":1176,"y":271,"t":799,"event":"mousemove"},{"x":1201,"y":252,"t":815,"event":"mousemove"},{"x":1221,"y":238,"t":832,"event":"mousemove"},{"x":1235,"y":230,"t":848,"event":"mousemove"},{"x":1233,"y":230,"t":1003,"event":"mousemove"},{"x":1232,"y":230,"t":1011,"event":"mousemove"},{"x":1228,"y":230,"t":1020,"event":"mousemove"}],"mouse_tracking_targets":{},"correct":true},{"rt":3099,"stimulus":"<p>How confident are you about your choice ? (click on the bar)</p>","slider_start":50,"response":100,"trial_type":"html-slider-response","trial_index":29,"time_elapsed":43653,"internal_node_id":"0.0-8.0-2.2"},{"rt":null,"stimulus":"\n        <div id='jspsych-image' style='position: relative; width: min(80vw, 80vh); height: min(80vw, 80vh);'>\n                \n                <div style='position: absolute; top: 40%; left: 30%; bottom: 40%; right: 30%;'><h1 style='font-size: 60px; color: green;'>Correct!</h1></div>\n                \n                <div class='jspsych-image' id='jspsych-image-0' data-choice='0' style='top: 0;     left: 0;'><img style=\"width: 100%; height: 100%;\" src='../static/human_exp_images/task_rot/02_0.png' class=''></img></div>\n                <div class='jspsych-image' id='jspsych-image-1' data-choice='1' style='top: 0;     right: 0;'><img style=\"width: 100%; height: 100%;\" src='../static/human_exp_images/task_rot/02_3.png' class='correct-choice'></img></div>\n                <div class='jspsych-image' id='jspsych-image-2' data-choice='2' style='bottom: 0;  left: 0;'><img style=\"width: 100%; height: 100%;\" src='../static/human_exp_images/task_rot/02_2.png' class=''></img></div>\n                <div class='jspsych-image' id='jspsych-image-3' data-choice='3' style='bottom: 0;  right: 0;'><img style=\"width: 100%; height: 100%;\" src='../static/human_exp_images/task_rot/02_1.png' class=''></img></div>\n\n        </div>","response":null,"trial_type":"html-keyboard-response","trial_index":30,"time_elapsed":45156,"internal_node_id":"0.0-8.0-3.2"},{"rt":4734,"response":{"Q0":"54\n"},"trial_type":"survey-text","trial_index":31,"time_elapsed":49898,"internal_node_id":"0.0-9.0"}]