[{"rt":null,"trial_type":"image-click","trial_index":4,"time_elapsed":6632,"internal_node_id":"0.0-4.0-0.0"},{"rt":1344,"response":0,"all_choices":["../static/human_exp_images/practice_img/00_3.png","../static/human_exp_images/practice_img/00_2.png","../static/human_exp_images/practice_img/00_0.png","../static/human_exp_images/practice_img/00_1.png"],"task":"response","correct_response":0,"shuffled_array":[3,2,0,1],"catch_trial":false,"trial_type":"image-click","trial_index":5,"time_elapsed":7980,"internal_node_id":"0.0-4.0-1.0","mouse_tracking_data":[{"x":992,"y":529,"t":0,"event":"mousemove"},{"x":992,"y":520,"t":12,"event":"mousemove"},{"x":992,"y":516,"t":28,"event":"mousemove"},{"x":992,"y":515,"t":46,"event":"mousemove"},{"x":992,"y":513,"t":970,"event":"mousemove"},{"x":992,"y":511,"t":988,"event":"mousemove"},{"x":992,"y":510,"t":999,"event":"mousemove"},{"x":992,"y":508,"t":1006,"event":"mousemove"},{"x":992,"y":503,"t":1015,"event":"mousemove"},{"x":992,"y":501,"t":1020,"event":"mousemove"},{"x":992,"y":496,"t":1023,"event":"mousemove"},{"x":992,"y":492,"t":1025,"event":"mousemove"},{"x":992,"y":483,"t":1032,"event":"mousemove"},{"x":987,"y":468,"t":1049,"event":"mousemove"},{"x":973,"y":446,"t":1067,"event":"mousemove"},{"x":954,"y":415,"t":1082,"event":"mousemove"},{"x":935,"y":392,"t":1099,"event":"mousemove"},{"x":911,"y":366,"t":1115,"event":"mousemove"},{"x":874,"y":325,"t":1133,"event":"mousemove"},{"x":857,"y":303,"t":1149,"event":"mousemove"},{"x":829,"y":277,"t":1167,"event":"mousemove"},{"x":808,"y":261,"t":1183,"event":"mousemove"},{"x":791,"y":251,"t":1199,"event":"mousemove"},{"x":772,"y":241,"t":1216,"event":"mousemove"},{"x":767,"y":238,"t":1232,"event":"mousemove"},{"x":755,"y":233,"t":1250,"event":"mousemove"},{"x":750,"y":231,"t":1266,"event":"mousemove"},{"x":750,"y":230,"t":1283,"event":"mousemove"},{"x":748,"y":230,"t":1299,"event":"mousemove"}],"mouse_tracking_targets":{},"correct":true},{"rt":938,"stimulus":"<p>How confident are you about your choice ? (click on the bar)</p>","slider_start":50,"response":95,"trial_type":"html-slider-response","trial_index":6,"time_elapsed":8919,"internal_node_id":"0.0-4.0-2.0"},{"rt":null,"stimulus":"\n        <div id='jspsych-image' style='position: relative; width: min(80vw, 80vh); height: min(80vw, 80vh);'>\n                \n                <div style='position: absolute; top: 40%; left: 30%; bottom: 40%; right: 30%;'><h1 style='font-size: 60px; color: green;'>Correct!</h1></div>\n                \n                <div class='jspsych-image' id='jspsych-image-0' data-choice='0' style='top: 0;     left: 0;'><img style=\"width: 100%; height: 100%;\" src='../static/human_exp_images/practice_img/00_3.png' class='correct-choice'></img></div>\n                <div class='jspsych-image' id='jspsych-image-1' data-choice='1' style='top: 0;     right: 0;'><img style=\"width: 100%; height: 100%;\" src='../static/human_exp_images/practice_img/00_2.png' class=''></img></div>\n                <div class='jspsych-image' id='jspsych-image-2' data-choice='2' style='bottom: 0;  left: 0;'><img style=\"width: 100%; height: 100%;\" src='../static/human_exp_images/practice_img/00_0.png' class=''></img></div>\n                <div class='jspsych-image' id='jspsych-image-3' data-choice='3' style='bottom: 0;  right: 0;'><img style=\"width: 100%; height: 100%;\" src='../static/human_exp_images/practice_img/00_1.png' class=''></img></div>\n\n        </div>","response":null,"trial_type":"html-keyboard-response","trial_index":7,"time_elapsed":10424,"internal_node_id":"0.0-4.0-3.0"},{"rt":null,"trial_type":"image-click","trial_index":8,"time_elapsed":10427,"internal_node_id":"0.0-4.0-0.1"},{"rt":871,"response":1,"all_choices":["../static/human_exp_images/practice_img/01_0.png","../static/human_exp_images/practice_img/01_3.png","../static/human_exp_images/practice_img/01_1.png","../static/human_exp_images/practice_img/01_2.png"],"task":"response","correct_response":1,"shuffled_array":[0,3,1,2],"catch_trial":false,"trial_type":"image-click","trial_index":9,"time_elapsed":11300,"internal_node_id":"0.0-4.0-1.1","mouse_tracking_data":[{"x":1049,"y":486,"t":329,"event":"mousemove"},{"x":1048,"y":486,"t":337,"event":"mousemove"},{"x":1046,"y":486,"t":345,"event":"mousemove"},{"x":1044,"y":486,"t":355,"event":"mousemove"},{"x":1041,"y":486,"t":362,"event":"mousemove"},{"x":1036,"y":486,"t":378,"event":"mousemove"},{"x":1032,"y":486,"t":395,"event":"mousemove"},{"x":1031,"y":482,"t":412,"event":"mousemove"},{"x":1031,"y":481,"t":429,"event":"mousemove"},{"x":1031,"y":477,"t":445,"event":"mousemove"},{"x":1031,"y":474,"t":463,"event":"mousemove"},{"x":1031,"y":467,"t":478,"event":"mousemove"},{"x":1031,"y":465,"t":495,"event":"mousemove"},{"x":1032,"y":465,"t":598,"event":"mousemove"},{"x":1036,"y":464,"t":614,"event":"mousemove"},{"x":1041,"y":458,"t":631,"event":"mousemove"},{"x":1053,"y":447,"t":648,"event":"mousemove"},{"x":1066,"y":426,"t":665,"event":"mousemove"},{"x":1087,"y":401,"t":681,"event":"mousemove"},{"x":1105,"y":379,"t":698,"event":"mousemove"},{"x":1119,"y":360,"t":715,"event":"mousemove"},{"x":1134,"y":331,"t":732,"event":"mousemove"},{"x":1145,"y":305,"t":747,"event":"mousemove"},{"x":1151,"y":288,"t":764,"event":"mousemove"},{"x":1156,"y":283,"t":781,"event":"mousemove"},{"x":1156,"y":281,"t":798,"event":"mousemove"}],"mouse_tracking_targets":{},"correct":true},{"rt":689,"stimulus":"<p>How confident are you about your choice ? (click on the bar)</p>","slider_start":50,"response":97,"trial_type":"html-slider-response","trial_index":10,"time_elapsed":11989,"internal_node_id":"0.0-4.0-2.1"},{"rt":null,"stimulus":"\n        <div id='jspsych-image' style='position: relative; width: min(80vw, 80vh); height: min(80vw, 80vh);'>\n                \n                <div style='position: absolute; top: 40%; left: 30%; bottom: 40%; right: 30%;'><h1 style='font-size: 60px; color: green;'>Correct!</h1></div>\n                \n                <div class='jspsych-image' id='jspsych-image-0' data-choice='0' style='top: 0;     left: 0;'><img style=\"width: 100%; height: 100%;\" src='../static/human_exp_images/practice_img/01_0.png' class=''></img></div>\n                <div class='jspsych-image' id='jspsych-image-1' data-choice='1' style='top: 0;     right: 0;'><img style=\"width: 100%; height: 100%;\" src='../static/human_exp_images/practice_img/01_3.png' class='correct-choice'></img></div>\n                <div class='jspsych-image' id='jspsych-image-2' data-choice='2' style='bottom: 0;  left: 0;'><img style=\"width: 100%; height: 100%;\" src='../static/human_exp_images/practice_img/01_1.png' class=''></img></div>\n                <div class='jspsych-image' id='jspsych-image-3' data-choice='3' style='bottom: 0;  right: 0;'><img style=\"width: 100%; height: 100%;\" src='../static/human_exp_images/practice_img/01_2.png' class=''></img></div>\n\n        </div>","response":null,"trial_type":"html-keyboard-response","trial_index":11,"time_elapsed":13491,"internal_node_id":"0.0-4.0-3.1"},{"rt":null,"trial_type":"image-click","trial_index":12,"time_elapsed":13922,"internal_node_id":"0.0-4.0-0.2"},{"rt":855,"response":2,"all_choices":["../static/human_exp_images/practice_img/02_1.png","../static/human_exp_images/practice_img/02_2.png","../static/human_exp_images/practice_img/02_3.png","../static/human_exp_images/practice_img/02_0.png"],"task":"response","correct_response":2,"shuffled_array":[1,2,3,0],"catch_trial":false,"trial_type":"image-click","trial_index":13,"time_elapsed":14779,"internal_node_id":"0.0-4.0-1.2","mouse_tracking_data":[{"x":1038,"y":450,"t":0,"event":"mousemove"},{"x":1025,"y":448,"t":13,"event":"mousemove"},{"x":1018,"y":446,"t":29,"event":"mousemove"},{"x":1013,"y":446,"t":47,"event":"mousemove"},{"x":1012,"y":446,"t":72,"event":"mousemove"},{"x":1010,"y":446,"t":144,"event":"mousemove"},{"x":1008,"y":446,"t":162,"event":"mousemove"},{"x":1006,"y":446,"t":207,"event":"mousemove"},{"x":1005,"y":446,"t":245,"event":"mousemove"},{"x":1005,"y":444,"t":362,"event":"mousemove"},{"x":1003,"y":444,"t":597,"event":"mousemove"},{"x":1000,"y":444,"t":606,"event":"mousemove"},{"x":998,"y":444,"t":610,"event":"mousemove"},{"x":995,"y":444,"t":615,"event":"mousemove"},{"x":984,"y":451,"t":631,"event":"mousemove"},{"x":954,"y":484,"t":649,"event":"mousemove"},{"x":923,"y":525,"t":664,"event":"mousemove"},{"x":881,"y":566,"t":681,"event":"mousemove"},{"x":853,"y":594,"t":698,"event":"mousemove"},{"x":819,"y":632,"t":715,"event":"mousemove"},{"x":802,"y":654,"t":731,"event":"mousemove"},{"x":781,"y":681,"t":748,"event":"mousemove"},{"x":770,"y":694,"t":766,"event":"mousemove"},{"x":766,"y":699,"t":781,"event":"mousemove"}],"mouse_tracking_targets":{},"correct":true},{"rt":732,"stimulus":"<p>How confident are you about your choice ? (click on the bar)</p>","slider_start":50,"response":95,"trial_type":"html-slider-response","trial_index":14,"time_elapsed":15512,"internal_node_id":"0.0-4.0-2.2"},{"rt":null,"stimulus":"\n        <div id='jspsych-image' style='position: relative; width: min(80vw, 80vh); height: min(80vw, 80vh);'>\n                \n                <div style='position: absolute; top: 40%; left: 30%; bottom: 40%; right: 30%;'><h1 style='font-size: 60px; color: green;'>Correct!</h1></div>\n                \n                <div class='jspsych-image' id='jspsych-image-0' data-choice='0' style='top: 0;     left: 0;'><img style=\"width: 100%; height: 100%;\" src='../static/human_exp_images/practice_img/02_1.png' class=''></img></div>\n                <div class='jspsych-image' id='jspsych-image-1' data-choice='1' style='top: 0;     right: 0;'><img style=\"width: 100%; height: 100%;\" src='../static/human_exp_images/practice_img/02_2.png' class=''></img></div>\n                <div class='jspsych-image' id='jspsych-image-2' data-choice='2' style='bottom: 0;  left: 0;'><img style=\"width: 100%; height: 100%;\" src='../static/human_exp_images/practice_img/02_3.png' class='correct-choice'></img></div>\n                <div class='jspsych-image' id='jspsych-image-3' data-choice='3' style='bottom: 0;  right: 0;'><img style=\"width: 100%; height: 100%;\" src='../static/human_exp_images/practice_img/02_0.png' class=''></img></div>\n\n        </div>","response":null,"trial_type":"html-keyboard-response","trial_index":15,"time_elapsed":17014,"internal_node_id":"0.0-4.0-3.2"}]