[{"rt":null,"trial_type":"image-click","trial_index":35,"time_elapsed":52070,"internal_node_id":"0.0-13.0-0.0"},{"rt":6287,"response":3,"all_choices":["../static/human_exp_images/task_flip/00_1.png","../static/human_exp_images/task_flip/00_2.png","../static/human_exp_images/task_flip/00_0.png","../static/human_exp_images/task_flip/00_3.png"],"task":"response","correct_response":3,"shuffled_array":[1,2,0,3],"catch_trial":false,"trial_type":"image-click","trial_index":36,"time_elapsed":58360,"internal_node_id":"0.0-13.0-1.0","mouse_tracking_data":[{"x":1010,"y":500,"t":446,"event":"mousemove"},{"x":1010,"y":502,"t":463,"event":"mousemove"},{"x":1010,"y":503,"t":571,"event":"mousemove"},{"x":1010,"y":505,"t":1318,"event":"mousemove"},{"x":1010,"y":507,"t":1328,"event":"mousemove"},{"x":1012,"y":507,"t":1333,"event":"mousemove"},{"x":1014,"y":508,"t":1342,"event":"mousemove"},{"x":1015,"y":510,"t":1351,"event":"mousemove"},{"x":1017,"y":512,"t":1360,"event":"mousemove"},{"x":1019,"y":512,"t":1370,"event":"mousemove"},{"x":1020,"y":513,"t":1386,"event":"mousemove"},{"x":1020,"y":515,"t":1403,"event":"mousemove"},{"x":1022,"y":517,"t":1420,"event":"mousemove"},{"x":1024,"y":519,"t":1436,"event":"mousemove"},{"x":1027,"y":522,"t":1452,"event":"mousemove"},{"x":1029,"y":524,"t":1470,"event":"mousemove"},{"x":1031,"y":527,"t":1487,"event":"mousemove"},{"x":1032,"y":527,"t":1503,"event":"mousemove"},{"x":1032,"y":529,"t":1520,"event":"mousemove"},{"x":1034,"y":530,"t":1536,"event":"mousemove"},{"x":1036,"y":530,"t":1553,"event":"mousemove"},{"x":1036,"y":532,"t":1596,"event":"mousemove"},{"x":1036,"y":534,"t":3505,"event":"mousemove"},{"x":1036,"y":535,"t":3577,"event":"mousemove"},{"x":1036,"y":537,"t":3632,"event":"mousemove"},{"x":1037,"y":537,"t":3659,"event":"mousemove"},{"x":1037,"y":539,"t":3676,"event":"mousemove"},{"x":1039,"y":539,"t":3703,"event":"mousemove"},{"x":1039,"y":541,"t":3713,"event":"mousemove"},{"x":1041,"y":541,"t":3740,"event":"mousemove"},{"x":1041,"y":542,"t":3748,"event":"mousemove"},{"x":1043,"y":542,"t":3766,"event":"mousemove"},{"x":1043,"y":544,"t":3785,"event":"mousemove"},{"x":1043,"y":546,"t":3821,"event":"mousemove"},{"x":1044,"y":546,"t":3832,"event":"mousemove"},{"x":1046,"y":547,"t":3849,"event":"mousemove"},{"x":1046,"y":549,"t":3901,"event":"mousemove"},{"x":1046,"y":551,"t":3922,"event":"mousemove"},{"x":1048,"y":552,"t":3958,"event":"mousemove"},{"x":1049,"y":552,"t":4012,"event":"mousemove"},{"x":1049,"y":554,"t":4031,"event":"mousemove"},{"x":1049,"y":556,"t":4095,"event":"mousemove"},{"x":1051,"y":556,"t":4113,"event":"mousemove"},{"x":1051,"y":558,"t":4241,"event":"mousemove"},{"x":1051,"y":559,"t":4423,"event":"mousemove"},{"x":1051,"y":561,"t":4532,"event":"mousemove"},{"x":1053,"y":561,"t":4714,"event":"mousemove"},{"x":1053,"y":563,"t":4915,"event":"mousemove"},{"x":1055,"y":563,"t":5016,"event":"mousemove"},{"x":1056,"y":563,"t":5198,"event":"mousemove"},{"x":1058,"y":563,"t":5728,"event":"mousemove"},{"x":1059,"y":564,"t":5737,"event":"mousemove"},{"x":1061,"y":568,"t":5745,"event":"mousemove"},{"x":1063,"y":570,"t":5748,"event":"mousemove"},{"x":1065,"y":571,"t":5754,"event":"mousemove"},{"x":1066,"y":573,"t":5757,"event":"mousemove"},{"x":1071,"y":583,"t":5774,"event":"mousemove"},{"x":1075,"y":588,"t":5791,"event":"mousemove"},{"x":1077,"y":590,"t":5808,"event":"mousemove"},{"x":1080,"y":595,"t":5824,"event":"mousemove"},{"x":1082,"y":595,"t":5840,"event":"mousemove"},{"x":1082,"y":597,"t":5857,"event":"mousemove"},{"x":1083,"y":599,"t":5875,"event":"mousemove"},{"x":1085,"y":599,"t":5891,"event":"mousemove"},{"x":1087,"y":599,"t":5928,"event":"mousemove"},{"x":1090,"y":600,"t":5940,"event":"mousemove"},{"x":1094,"y":602,"t":5958,"event":"mousemove"},{"x":1095,"y":604,"t":5974,"event":"mousemove"},{"x":1097,"y":605,"t":5991,"event":"mousemove"},{"x":1099,"y":605,"t":6009,"event":"mousemove"},{"x":1100,"y":605,"t":6037,"event":"mousemove"}],"mouse_tracking_targets":{},"correct":true},{"rt":1696,"stimulus":"<p>How confident are you about your choice ? (click on the bar)</p>","slider_start":50,"response":94,"trial_type":"html-slider-response","trial_index":37,"time_elapsed":60058,"internal_node_id":"0.0-13.0-2.0"},{"rt":null,"stimulus":"\n        <div id='jspsych-image' style='position: relative; width: min(80vw, 80vh); height: min(80vw, 80vh);'>\n                \n                <div style='position: absolute; top: 40%; left: 30%; bottom: 40%; right: 30%;'><h1 style='font-size: 60px; color: green;'>Correct!</h1></div>\n                \n                <div class='jspsych-image' id='jspsych-image-0' data-choice='0' style='top: 0;     left: 0;'><img style=\"width: 100%; height: 100%;\" src='../static/human_exp_images/task_flip/00_1.png' class=''></img></div>\n                <div class='jspsych-image' id='jspsych-image-1' data-choice='1' style='top: 0;     right: 0;'><img style=\"width: 100%; height: 100%;\" src='../static/human_exp_images/task_flip/00_2.png' class=''></img></div>\n                <div class='jspsych-image' id='jspsych-image-2' data-choice='2' style='bottom: 0;  left: 0;'><img style=\"width: 100%; height: 100%;\" src='../static/human_exp_images/task_flip/00_0.png' class=''></img></div>\n                <div class='jspsych-image' id='jspsych-image-3' data-choice='3' style='bottom: 0;  right: 0;'><img style=\"width: 100%; height: 100%;\" src='../static/human_exp_images/task_flip/00_3.png' class='correct-choice'></img></div>\n\n        </div>","response":null,"trial_type":"html-keyboard-response","trial_index":38,"time_elapsed":61565,"internal_node_id":"0.0-13.0-3.0"},{"rt":null,"trial_type":"image-click","trial_index":39,"time_elapsed":62684,"internal_node_id":"0.0-13.0-0.1"},{"rt":3001,"response":0,"all_choices":["../static/human_exp_images/task_flip/01_1.png","../static/human_exp_images/task_flip/01_3.png","../static/human_exp_images/task_flip/01_2.png","../static/human_exp_images/task_flip/01_0.png"],"task":"response","correct_response":1,"shuffled_array":[1,3,2,0],"catch_trial":false,"trial_type":"image-click","trial_index":40,"time_elapsed":65688,"internal_node_id":"0.0-13.0-1.1","mouse_tracking_data":[{"x":1045,"y":469,"t":1,"event":"mousemove"},{"x":1031,"y":464,"t":12,"event":"mousemove"},{"x":1022,"y":460,"t":30,"event":"mousemove"},{"x":1013,"y":458,"t":46,"event":"mousemove"},{"x":1010,"y":458,"t":62,"event":"mousemove"},{"x":1005,"y":458,"t":80,"event":"mousemove"},{"x":1001,"y":458,"t":96,"event":"mousemove"},{"x":1000,"y":457,"t":113,"event":"mousemove"},{"x":998,"y":457,"t":129,"event":"mousemove"},{"x":996,"y":457,"t":146,"event":"mousemove"},{"x":995,"y":457,"t":163,"event":"mousemove"},{"x":993,"y":457,"t":201,"event":"mousemove"},{"x":993,"y":455,"t":338,"event":"mousemove"},{"x":993,"y":454,"t":885,"event":"mousemove"},{"x":993,"y":452,"t":913,"event":"mousemove"},{"x":991,"y":452,"t":931,"event":"mousemove"},{"x":991,"y":450,"t":995,"event":"mousemove"},{"x":991,"y":448,"t":1077,"event":"mousemove"},{"x":991,"y":447,"t":1242,"event":"mousemove"},{"x":989,"y":447,"t":1314,"event":"mousemove"},{"x":989,"y":445,"t":1323,"event":"mousemove"},{"x":988,"y":445,"t":1370,"event":"mousemove"},{"x":988,"y":443,"t":1424,"event":"mousemove"},{"x":986,"y":443,"t":1442,"event":"mousemove"},{"x":986,"y":442,"t":1451,"event":"mousemove"},{"x":986,"y":440,"t":1551,"event":"mousemove"},{"x":984,"y":440,"t":1560,"event":"mousemove"},{"x":983,"y":440,"t":1616,"event":"mousemove"},{"x":983,"y":438,"t":1652,"event":"mousemove"},{"x":981,"y":438,"t":1656,"event":"mousemove"},{"x":981,"y":437,"t":1660,"event":"mousemove"},{"x":974,"y":433,"t":1676,"event":"mousemove"},{"x":965,"y":428,"t":1694,"event":"mousemove"},{"x":962,"y":423,"t":1709,"event":"mousemove"},{"x":959,"y":423,"t":1726,"event":"mousemove"},{"x":957,"y":421,"t":1743,"event":"mousemove"},{"x":955,"y":419,"t":1760,"event":"mousemove"},{"x":954,"y":419,"t":1779,"event":"mousemove"},{"x":952,"y":419,"t":1796,"event":"mousemove"},{"x":950,"y":419,"t":1869,"event":"mousemove"},{"x":950,"y":418,"t":2181,"event":"mousemove"},{"x":950,"y":416,"t":2674,"event":"mousemove"},{"x":950,"y":415,"t":2691,"event":"mousemove"},{"x":950,"y":413,"t":2720,"event":"mousemove"},{"x":950,"y":411,"t":2728,"event":"mousemove"},{"x":950,"y":404,"t":2744,"event":"mousemove"},{"x":948,"y":387,"t":2761,"event":"mousemove"},{"x":938,"y":369,"t":2778,"event":"mousemove"},{"x":928,"y":353,"t":2795,"event":"mousemove"},{"x":919,"y":344,"t":2810,"event":"mousemove"},{"x":909,"y":337,"t":2828,"event":"mousemove"},{"x":902,"y":334,"t":2844,"event":"mousemove"},{"x":892,"y":329,"t":2861,"event":"mousemove"},{"x":881,"y":324,"t":2878,"event":"mousemove"},{"x":873,"y":319,"t":2894,"event":"mousemove"},{"x":863,"y":312,"t":2911,"event":"mousemove"},{"x":857,"y":308,"t":2928,"event":"mousemove"},{"x":856,"y":305,"t":2944,"event":"mousemove"},{"x":854,"y":303,"t":2962,"event":"mousemove"},{"x":852,"y":303,"t":2993,"event":"mousemove"}],"mouse_tracking_targets":{},"correct":false},{"rt":2367,"stimulus":"<p>How confident are you about your choice ? (click on the bar)</p>","slider_start":50,"response":51,"trial_type":"html-slider-response","trial_index":41,"time_elapsed":68055,"internal_node_id":"0.0-13.0-2.1"},{"rt":null,"stimulus":"\n        <div id='jspsych-image' style='position: relative; width: min(80vw, 80vh); height: min(80vw, 80vh);'>\n                \n                <div style='position: absolute; top: 40%; left: 30%; bottom: 40%; right: 30%;'><h1 style='font-size: 60px; color: red'>Wrong</h1></div>\n                \n                <div class='jspsych-image' id='jspsych-image-0' data-choice='0' style='top: 0;     left: 0;'><img style=\"width: 100%; height: 100%;\" src='../static/human_exp_images/task_flip/01_1.png' class='wrong-choice'></img></div>\n                <div class='jspsych-image' id='jspsych-image-1' data-choice='1' style='top: 0;     right: 0;'><img style=\"width: 100%; height: 100%;\" src='../static/human_exp_images/task_flip/01_3.png' class='correct-choice'></img></div>\n                <div class='jspsych-image' id='jspsych-image-2' data-choice='2' style='bottom: 0;  left: 0;'><img style=\"width: 100%; height: 100%;\" src='../static/human_exp_images/task_flip/01_2.png' class=''></img></div>\n                <div class='jspsych-image' id='jspsych-image-3' data-choice='3' style='bottom: 0;  right: 0;'><img style=\"width: 100%; height: 100%;\" src='../static/human_exp_images/task_flip/01_0.png' class=''></img></div>\n\n        </div>","response":null,"trial_type":"html-keyboard-response","trial_index":42,"time_elapsed":70558,"internal_node_id":"0.0-13.0-3.1"},{"rt":null,"trial_type":"image-click","trial_index":43,"time_elapsed":71242,"internal_node_id":"0.0-13.0-0.2"},{"rt":5793,"response":0,"all_choices":["../static/human_exp_images/task_flip/02_3.png","../static/human_exp_images/task_flip/02_1.png","../static/human_exp_images/task_flip/02_0.png","../static/human_exp_images/task_flip/02_2.png"],"task":"response","correct_response":0,"shuffled_array":[3,1,0,2],"catch_trial":false,"trial_type":"image-click","trial_index":44,"time_elapsed":77037,"internal_node_id":"0.0-13.0-1.2","mouse_tracking_data":[{"x":993,"y":532,"t":1,"event":"mousemove"},{"x":993,"y":523,"t":14,"event":"mousemove"},{"x":993,"y":518,"t":30,"event":"mousemove"},{"x":993,"y":516,"t":47,"event":"mousemove"},{"x":993,"y":514,"t":63,"event":"mousemove"},{"x":993,"y":513,"t":80,"event":"mousemove"},{"x":993,"y":511,"t":98,"event":"mousemove"},{"x":993,"y":509,"t":121,"event":"mousemove"},{"x":994,"y":509,"t":3938,"event":"mousemove"},{"x":996,"y":509,"t":3945,"event":"mousemove"},{"x":998,"y":509,"t":3953,"event":"mousemove"},{"x":1000,"y":509,"t":3962,"event":"mousemove"},{"x":1001,"y":509,"t":3978,"event":"mousemove"},{"x":1005,"y":509,"t":3995,"event":"mousemove"},{"x":1005,"y":511,"t":4124,"event":"mousemove"},{"x":1000,"y":516,"t":4140,"event":"mousemove"},{"x":998,"y":518,"t":4158,"event":"mousemove"},{"x":993,"y":521,"t":4174,"event":"mousemove"},{"x":991,"y":521,"t":4191,"event":"mousemove"},{"x":989,"y":521,"t":4252,"event":"mousemove"},{"x":988,"y":521,"t":4462,"event":"mousemove"},{"x":988,"y":520,"t":4616,"event":"mousemove"},{"x":988,"y":514,"t":4633,"event":"mousemove"},{"x":991,"y":506,"t":4650,"event":"mousemove"},{"x":1000,"y":496,"t":4666,"event":"mousemove"},{"x":1008,"y":485,"t":4684,"event":"mousemove"},{"x":1015,"y":477,"t":4700,"event":"mousemove"},{"x":1020,"y":472,"t":4716,"event":"mousemove"},{"x":1023,"y":467,"t":4732,"event":"mousemove"},{"x":1027,"y":462,"t":4750,"event":"mousemove"},{"x":1032,"y":456,"t":4766,"event":"mousemove"},{"x":1034,"y":455,"t":4790,"event":"mousemove"},{"x":1035,"y":453,"t":4807,"event":"mousemove"},{"x":1035,"y":451,"t":4827,"event":"mousemove"},{"x":1035,"y":450,"t":4899,"event":"mousemove"},{"x":1035,"y":448,"t":4943,"event":"mousemove"},{"x":1037,"y":446,"t":4963,"event":"mousemove"},{"x":1039,"y":444,"t":4973,"event":"mousemove"},{"x":1041,"y":443,"t":4982,"event":"mousemove"},{"x":1044,"y":438,"t":4998,"event":"mousemove"},{"x":1047,"y":433,"t":5015,"event":"mousemove"},{"x":1049,"y":431,"t":5031,"event":"mousemove"},{"x":1049,"y":429,"t":5048,"event":"mousemove"},{"x":1049,"y":427,"t":5064,"event":"mousemove"},{"x":1049,"y":426,"t":5091,"event":"mousemove"},{"x":1051,"y":426,"t":5117,"event":"mousemove"},{"x":1051,"y":424,"t":5235,"event":"mousemove"},{"x":1051,"y":422,"t":5271,"event":"mousemove"},{"x":1051,"y":421,"t":5298,"event":"mousemove"},{"x":1051,"y":419,"t":5307,"event":"mousemove"},{"x":1051,"y":415,"t":5315,"event":"mousemove"},{"x":1051,"y":409,"t":5332,"event":"mousemove"},{"x":1051,"y":397,"t":5349,"event":"mousemove"},{"x":1039,"y":386,"t":5365,"event":"mousemove"},{"x":1025,"y":378,"t":5382,"event":"mousemove"},{"x":1010,"y":369,"t":5400,"event":"mousemove"},{"x":1003,"y":366,"t":5416,"event":"mousemove"},{"x":988,"y":361,"t":5433,"event":"mousemove"},{"x":972,"y":356,"t":5449,"event":"mousemove"},{"x":955,"y":351,"t":5466,"event":"mousemove"},{"x":938,"y":347,"t":5482,"event":"mousemove"},{"x":928,"y":345,"t":5499,"event":"mousemove"},{"x":914,"y":345,"t":5517,"event":"mousemove"},{"x":902,"y":344,"t":5532,"event":"mousemove"},{"x":890,"y":342,"t":5549,"event":"mousemove"},{"x":882,"y":340,"t":5566,"event":"mousemove"},{"x":871,"y":339,"t":5583,"event":"mousemove"},{"x":868,"y":339,"t":5599,"event":"mousemove"},{"x":858,"y":335,"t":5616,"event":"mousemove"},{"x":853,"y":333,"t":5632,"event":"mousemove"},{"x":848,"y":333,"t":5649,"event":"mousemove"},{"x":846,"y":332,"t":5667,"event":"mousemove"},{"x":842,"y":330,"t":5683,"event":"mousemove"},{"x":841,"y":330,"t":5699,"event":"mousemove"}],"mouse_tracking_targets":{},"correct":true},{"rt":877,"stimulus":"<p>How confident are you about your choice ? (click on the bar)</p>","slider_start":50,"response":81,"trial_type":"html-slider-response","trial_index":45,"time_elapsed":77917,"internal_node_id":"0.0-13.0-2.2"},{"rt":null,"stimulus":"\n        <div id='jspsych-image' style='position: relative; width: min(80vw, 80vh); height: min(80vw, 80vh);'>\n                \n                <div style='position: absolute; top: 40%; left: 30%; bottom: 40%; right: 30%;'><h1 style='font-size: 60px; color: green;'>Correct!</h1></div>\n                \n                <div class='jspsych-image' id='jspsych-image-0' data-choice='0' style='top: 0;     left: 0;'><img style=\"width: 100%; height: 100%;\" src='../static/human_exp_images/task_flip/02_3.png' class='correct-choice'></img></div>\n                <div class='jspsych-image' id='jspsych-image-1' data-choice='1' style='top: 0;     right: 0;'><img style=\"width: 100%; height: 100%;\" src='../static/human_exp_images/task_flip/02_1.png' class=''></img></div>\n                <div class='jspsych-image' id='jspsych-image-2' data-choice='2' style='bottom: 0;  left: 0;'><img style=\"width: 100%; height: 100%;\" src='../static/human_exp_images/task_flip/02_0.png' class=''></img></div>\n                <div class='jspsych-image' id='jspsych-image-3' data-choice='3' style='bottom: 0;  right: 0;'><img style=\"width: 100%; height: 100%;\" src='../static/human_exp_images/task_flip/02_2.png' class=''></img></div>\n\n        </div>","response":null,"trial_type":"html-keyboard-response","trial_index":46,"time_elapsed":79421,"internal_node_id":"0.0-13.0-3.2"},{"rt":1125,"response":{"Q0":""},"trial_type":"survey-text","trial_index":47,"time_elapsed":80552,"internal_node_id":"0.0-14.0"}]