[{"rt":null,"trial_type":"image-click","trial_index":4,"time_elapsed":8405,"internal_node_id":"0.0-4.0-0.0"},{"rt":874,"response":3,"all_choices":["../static/human_exp_images/practice_img/00_1.png","../static/human_exp_images/practice_img/00_2.png","../static/human_exp_images/practice_img/00_0.png","../static/human_exp_images/practice_img/00_3.png"],"task":"response","correct_response":3,"shuffled_array":[1,2,0,3],"catch_trial":false,"trial_type":"image-click","trial_index":5,"time_elapsed":9283,"internal_node_id":"0.0-4.0-1.0","mouse_tracking_data":[{"x":944,"y":523,"t":1,"event":"mousemove"},{"x":942,"y":503,"t":13,"event":"mousemove"},{"x":942,"y":498,"t":30,"event":"mousemove"},{"x":942,"y":495,"t":45,"event":"mousemove"},{"x":942,"y":493,"t":71,"event":"mousemove"},{"x":942,"y":491,"t":107,"event":"mousemove"},{"x":942,"y":489,"t":124,"event":"mousemove"},{"x":943,"y":489,"t":234,"event":"mousemove"},{"x":945,"y":489,"t":245,"event":"mousemove"},{"x":947,"y":489,"t":253,"event":"mousemove"},{"x":950,"y":489,"t":261,"event":"mousemove"},{"x":952,"y":489,"t":266,"event":"mousemove"},{"x":955,"y":489,"t":270,"event":"mousemove"},{"x":957,"y":489,"t":273,"event":"mousemove"},{"x":965,"y":489,"t":290,"event":"mousemove"},{"x":979,"y":496,"t":306,"event":"mousemove"},{"x":984,"y":501,"t":322,"event":"mousemove"},{"x":991,"y":507,"t":340,"event":"mousemove"},{"x":993,"y":510,"t":356,"event":"mousemove"},{"x":995,"y":510,"t":373,"event":"mousemove"},{"x":996,"y":510,"t":389,"event":"mousemove"},{"x":996,"y":512,"t":553,"event":"mousemove"},{"x":996,"y":513,"t":562,"event":"mousemove"},{"x":996,"y":515,"t":571,"event":"mousemove"},{"x":996,"y":518,"t":580,"event":"mousemove"},{"x":996,"y":520,"t":583,"event":"mousemove"},{"x":996,"y":524,"t":588,"event":"mousemove"},{"x":996,"y":527,"t":589,"event":"mousemove"},{"x":1004,"y":537,"t":606,"event":"mousemove"},{"x":1041,"y":577,"t":623,"event":"mousemove"},{"x":1094,"y":627,"t":639,"event":"mousemove"},{"x":1152,"y":678,"t":656,"event":"mousemove"},{"x":1181,"y":704,"t":672,"event":"mousemove"},{"x":1190,"y":711,"t":690,"event":"mousemove"},{"x":1196,"y":716,"t":705,"event":"mousemove"},{"x":1197,"y":716,"t":723,"event":"mousemove"}],"mouse_tracking_targets":{},"correct":true},{"rt":1281,"stimulus":"<p>How confident are you about your choice ? (click on the bar)</p>","slider_start":50,"response":100,"trial_type":"html-slider-response","trial_index":6,"time_elapsed":10566,"internal_node_id":"0.0-4.0-2.0"},{"rt":null,"stimulus":"\n        <div id='jspsych-image' style='position: relative; width: min(80vw, 80vh); height: min(80vw, 80vh);'>\n                \n                <div style='position: absolute; top: 40%; left: 30%; bottom: 40%; right: 30%;'><h1 style='font-size: 60px; color: green;'>Correct!</h1></div>\n                \n                <div class='jspsych-image' id='jspsych-image-0' data-choice='0' style='top: 0;     left: 0;'><img style=\"width: 100%; height: 100%;\" src='../static/human_exp_images/practice_img/00_1.png' class=''></img></div>\n                <div class='jspsych-image' id='jspsych-image-1' data-choice='1' style='top: 0;     right: 0;'><img style=\"width: 100%; height: 100%;\" src='../static/human_exp_images/practice_img/00_2.png' class=''></img></div>\n                <div class='jspsych-image' id='jspsych-image-2' data-choice='2' style='bottom: 0;  left: 0;'><img style=\"width: 100%; height: 100%;\" src='../static/human_exp_images/practice_img/00_0.png' class=''></img></div>\n                <div class='jspsych-image' id='jspsych-image-3' data-choice='3' style='bottom: 0;  right: 0;'><img style=\"width: 100%; height: 100%;\" src='../static/human_exp_images/practice_img/00_3.png' class='correct-choice'></img></div>\n\n        </div>","response":null,"trial_type":"html-keyboard-response","trial_index":7,"time_elapsed":12068,"internal_node_id":"0.0-4.0-3.0"},{"rt":null,"trial_type":"image-click","trial_index":8,"time_elapsed":12525,"internal_node_id":"0.0-4.0-0.1"},{"rt":994,"response":2,"all_choices":["../static/human_exp_images/practice_img/01_0.png","../static/human_exp_images/practice_img/01_1.png","../static/human_exp_images/practice_img/01_3.png","../static/human_exp_images/practice_img/01_2.png"],"task":"response","correct_response":2,"shuffled_array":[0,1,3,2],"catch_trial":false,"trial_type":"image-click","trial_index":9,"time_elapsed":13522,"internal_node_id":"0.0-4.0-1.1","mouse_tracking_data":[{"x":1025,"y":466,"t":1,"event":"mousemove"},{"x":1002,"y":462,"t":14,"event":"mousemove"},{"x":984,"y":457,"t":30,"event":"mousemove"},{"x":975,"y":456,"t":46,"event":"mousemove"},{"x":970,"y":456,"t":64,"event":"mousemove"},{"x":966,"y":454,"t":80,"event":"mousemove"},{"x":970,"y":454,"t":275,"event":"mousemove"},{"x":971,"y":454,"t":277,"event":"mousemove"},{"x":975,"y":454,"t":283,"event":"mousemove"},{"x":976,"y":454,"t":284,"event":"mousemove"},{"x":983,"y":454,"t":300,"event":"mousemove"},{"x":995,"y":454,"t":317,"event":"mousemove"},{"x":1006,"y":454,"t":333,"event":"mousemove"},{"x":1019,"y":454,"t":350,"event":"mousemove"},{"x":1031,"y":461,"t":366,"event":"mousemove"},{"x":1058,"y":473,"t":383,"event":"mousemove"},{"x":1083,"y":487,"t":400,"event":"mousemove"},{"x":1109,"y":502,"t":416,"event":"mousemove"},{"x":1147,"y":534,"t":433,"event":"mousemove"},{"x":1172,"y":562,"t":450,"event":"mousemove"},{"x":1182,"y":581,"t":467,"event":"mousemove"},{"x":1184,"y":584,"t":483,"event":"mousemove"},{"x":1184,"y":586,"t":500,"event":"mousemove"},{"x":1175,"y":586,"t":547,"event":"mousemove"},{"x":1172,"y":586,"t":551,"event":"mousemove"},{"x":1101,"y":557,"t":567,"event":"mousemove"},{"x":1037,"y":534,"t":583,"event":"mousemove"},{"x":988,"y":519,"t":600,"event":"mousemove"},{"x":913,"y":498,"t":617,"event":"mousemove"},{"x":867,"y":494,"t":633,"event":"mousemove"},{"x":830,"y":494,"t":651,"event":"mousemove"},{"x":811,"y":494,"t":667,"event":"mousemove"},{"x":787,"y":496,"t":683,"event":"mousemove"},{"x":778,"y":503,"t":700,"event":"mousemove"},{"x":756,"y":522,"t":717,"event":"mousemove"},{"x":724,"y":545,"t":733,"event":"mousemove"},{"x":695,"y":562,"t":750,"event":"mousemove"},{"x":676,"y":578,"t":767,"event":"mousemove"},{"x":659,"y":591,"t":783,"event":"mousemove"},{"x":655,"y":593,"t":800,"event":"mousemove"},{"x":654,"y":596,"t":817,"event":"mousemove"},{"x":654,"y":598,"t":834,"event":"mousemove"}],"mouse_tracking_targets":{},"correct":true},{"rt":2339,"stimulus":"<p>How confident are you about your choice ? (click on the bar)</p>","slider_start":50,"response":100,"trial_type":"html-slider-response","trial_index":10,"time_elapsed":15861,"internal_node_id":"0.0-4.0-2.1"},{"rt":null,"stimulus":"\n        <div id='jspsych-image' style='position: relative; width: min(80vw, 80vh); height: min(80vw, 80vh);'>\n                \n                <div style='position: absolute; top: 40%; left: 30%; bottom: 40%; right: 30%;'><h1 style='font-size: 60px; color: green;'>Correct!</h1></div>\n                \n                <div class='jspsych-image' id='jspsych-image-0' data-choice='0' style='top: 0;     left: 0;'><img style=\"width: 100%; height: 100%;\" src='../static/human_exp_images/practice_img/01_0.png' class=''></img></div>\n                <div class='jspsych-image' id='jspsych-image-1' data-choice='1' style='top: 0;     right: 0;'><img style=\"width: 100%; height: 100%;\" src='../static/human_exp_images/practice_img/01_1.png' class=''></img></div>\n                <div class='jspsych-image' id='jspsych-image-2' data-choice='2' style='bottom: 0;  left: 0;'><img style=\"width: 100%; height: 100%;\" src='../static/human_exp_images/practice_img/01_3.png' class='correct-choice'></img></div>\n                <div class='jspsych-image' id='jspsych-image-3' data-choice='3' style='bottom: 0;  right: 0;'><img style=\"width: 100%; height: 100%;\" src='../static/human_exp_images/practice_img/01_2.png' class=''></img></div>\n\n        </div>","response":null,"trial_type":"html-keyboard-response","trial_index":11,"time_elapsed":17365,"internal_node_id":"0.0-4.0-3.1"},{"rt":null,"trial_type":"image-click","trial_index":12,"time_elapsed":17758,"internal_node_id":"0.0-4.0-0.2"},{"rt":931,"response":1,"all_choices":["../static/human_exp_images/practice_img/02_1.png","../static/human_exp_images/practice_img/02_3.png","../static/human_exp_images/practice_img/02_2.png","../static/human_exp_images/practice_img/02_0.png"],"task":"response","correct_response":1,"shuffled_array":[1,3,2,0],"catch_trial":false,"trial_type":"image-click","trial_index":13,"time_elapsed":18692,"internal_node_id":"0.0-4.0-1.2","mouse_tracking_data":[{"x":1050,"y":459,"t":1,"event":"mousemove"},{"x":1047,"y":459,"t":13,"event":"mousemove"},{"x":1043,"y":459,"t":31,"event":"mousemove"},{"x":1038,"y":459,"t":48,"event":"mousemove"},{"x":1033,"y":459,"t":64,"event":"mousemove"},{"x":1024,"y":458,"t":81,"event":"mousemove"},{"x":1018,"y":458,"t":97,"event":"mousemove"},{"x":1007,"y":458,"t":114,"event":"mousemove"},{"x":1001,"y":458,"t":132,"event":"mousemove"},{"x":992,"y":458,"t":148,"event":"mousemove"},{"x":989,"y":458,"t":164,"event":"mousemove"},{"x":985,"y":458,"t":180,"event":"mousemove"},{"x":980,"y":458,"t":198,"event":"mousemove"},{"x":978,"y":458,"t":214,"event":"mousemove"},{"x":977,"y":458,"t":231,"event":"mousemove"},{"x":978,"y":458,"t":535,"event":"mousemove"},{"x":980,"y":458,"t":540,"event":"mousemove"},{"x":982,"y":458,"t":549,"event":"mousemove"},{"x":983,"y":458,"t":560,"event":"mousemove"},{"x":985,"y":458,"t":570,"event":"mousemove"},{"x":987,"y":458,"t":574,"event":"mousemove"},{"x":988,"y":458,"t":584,"event":"mousemove"},{"x":990,"y":458,"t":593,"event":"mousemove"},{"x":992,"y":458,"t":594,"event":"mousemove"},{"x":997,"y":458,"t":611,"event":"mousemove"},{"x":1023,"y":439,"t":627,"event":"mousemove"},{"x":1045,"y":411,"t":643,"event":"mousemove"},{"x":1083,"y":368,"t":660,"event":"mousemove"},{"x":1115,"y":330,"t":677,"event":"mousemove"},{"x":1135,"y":307,"t":693,"event":"mousemove"},{"x":1151,"y":288,"t":711,"event":"mousemove"},{"x":1160,"y":278,"t":727,"event":"mousemove"},{"x":1169,"y":266,"t":744,"event":"mousemove"},{"x":1171,"y":260,"t":761,"event":"mousemove"},{"x":1175,"y":258,"t":778,"event":"mousemove"},{"x":1175,"y":256,"t":803,"event":"mousemove"},{"x":1175,"y":254,"t":821,"event":"mousemove"},{"x":1176,"y":254,"t":827,"event":"mousemove"},{"x":1176,"y":253,"t":856,"event":"mousemove"}],"mouse_tracking_targets":{},"correct":true},{"rt":1155,"stimulus":"<p>How confident are you about your choice ? (click on the bar)</p>","slider_start":50,"response":99,"trial_type":"html-slider-response","trial_index":14,"time_elapsed":19849,"internal_node_id":"0.0-4.0-2.2"},{"rt":null,"stimulus":"\n        <div id='jspsych-image' style='position: relative; width: min(80vw, 80vh); height: min(80vw, 80vh);'>\n                \n                <div style='position: absolute; top: 40%; left: 30%; bottom: 40%; right: 30%;'><h1 style='font-size: 60px; color: green;'>Correct!</h1></div>\n                \n                <div class='jspsych-image' id='jspsych-image-0' data-choice='0' style='top: 0;     left: 0;'><img style=\"width: 100%; height: 100%;\" src='../static/human_exp_images/practice_img/02_1.png' class=''></img></div>\n                <div class='jspsych-image' id='jspsych-image-1' data-choice='1' style='top: 0;     right: 0;'><img style=\"width: 100%; height: 100%;\" src='../static/human_exp_images/practice_img/02_3.png' class='correct-choice'></img></div>\n                <div class='jspsych-image' id='jspsych-image-2' data-choice='2' style='bottom: 0;  left: 0;'><img style=\"width: 100%; height: 100%;\" src='../static/human_exp_images/practice_img/02_2.png' class=''></img></div>\n                <div class='jspsych-image' id='jspsych-image-3' data-choice='3' style='bottom: 0;  right: 0;'><img style=\"width: 100%; height: 100%;\" src='../static/human_exp_images/practice_img/02_0.png' class=''></img></div>\n\n        </div>","response":null,"trial_type":"html-keyboard-response","trial_index":15,"time_elapsed":21352,"internal_node_id":"0.0-4.0-3.2"}]