[{"success":true,"timeout":false,"failed_images":[],"failed_audio":[],"failed_video":[],"trial_type":"preload","trial_index":0,"time_elapsed":168,"internal_node_id":"0.0-0.0"},{"rt":1224,"stimulus":"<p style='font-size: 40px'>Welcome to the experiment.</p><p style='font-size: 30px'>Press any key to begin.</p>","response":" ","trial_type":"html-keyboard-response","trial_index":1,"time_elapsed":1392,"internal_node_id":"0.0-1.0"},{"rt":1193,"stimulus":"\n    <p>In this experiment, 4 images will appear on the screen. 3 out of 4 images were generated with a certain rule while one image (the odd one out) does not respect this rule.</p>\n    <p>Select the odd one out by clicking on the image.</p>\n    <p>Following your choice, you will be asked to rate how confident you were about your choice on a scale from 1 to 100. Then, you will receive feedback on the trial.</p>\n    <p>For each rule you will perform 20 trials. You will be notified at each rule change. </p>\n    <p>The following 3 trials will allow you to get familiar with the odd-one-out task. The experiment starts after this practice session.</p>\n    <p> Press any button to continue </p>\n    <div style='margin: auto; position: relative; width: 400px; height: 400px;'>\n        <div style='position: absolute; top: 0;     left: 0; '><img src='../static/img/square.png'></img></div>\n        <div style='position: absolute; top: 0;     right: 0;'><img src='../static/img/square.png'></img></div>\n        <div style='position: absolute; bottom: 0;  left: 0; '><img src='../static/img/square.png'></img></div>\n        <div style='position: absolute; bottom: 0;  right: 0;'><img src='../static/img/square.png'></img></div>\n    </div>\n","response":" ","trial_type":"html-keyboard-response","trial_index":2,"time_elapsed":2592,"internal_node_id":"0.0-2.0"},{"rt":null,"trial_type":"image-click","trial_index":3,"time_elapsed":6432,"internal_node_id":"0.0-3.0-0.0"},{"rt":18324,"response":0,"all_choices":["../static/human_exp_images/practice_img/00_2.png","../static/human_exp_images/practice_img/00_1.png","../static/human_exp_images/practice_img/00_3.png","../static/human_exp_images/practice_img/00_0.png"],"task":"response","correct_response":2,"shuffled_array":[2,1,3,0],"trial_type":"image-click","trial_index":4,"time_elapsed":24760,"internal_node_id":"0.0-3.0-1.0","mouse_tracking_data":[{"x":829,"y":538,"t":1,"event":"mousemove"},{"x":829,"y":525,"t":13,"event":"mousemove"},{"x":829,"y":511,"t":28,"event":"mousemove"},{"x":829,"y":508,"t":45,"event":"mousemove"},{"x":829,"y":504,"t":62,"event":"mousemove"},{"x":829,"y":501,"t":79,"event":"mousemove"},{"x":829,"y":499,"t":110,"event":"mousemove"},{"x":823,"y":499,"t":4042,"event":"mousemove"},{"x":810,"y":499,"t":4044,"event":"mousemove"},{"x":684,"y":499,"t":4060,"event":"mousemove"},{"x":442,"y":499,"t":4078,"event":"mousemove"},{"x":210,"y":499,"t":4093,"event":"mousemove"},{"x":9,"y":479,"t":4107,"event":"mousemove"},{"x":1473,"y":841,"t":12431,"event":"mousemove"},{"x":1422,"y":841,"t":12436,"event":"mousemove"},{"x":1377,"y":841,"t":12440,"event":"mousemove"},{"x":1280,"y":841,"t":12445,"event":"mousemove"},{"x":1233,"y":841,"t":12447,"event":"mousemove"},{"x":1106,"y":841,"t":12462,"event":"mousemove"},{"x":901,"y":841,"t":12479,"event":"mousemove"},{"x":713,"y":858,"t":12496,"event":"mousemove"},{"x":551,"y":869,"t":12513,"event":"mousemove"},{"x":427,"y":869,"t":12530,"event":"mousemove"},{"x":220,"y":869,"t":12546,"event":"mousemove"},{"x":54,"y":869,"t":12562,"event":"mousemove"},{"x":23,"y":869,"t":12571,"event":"mousemove"},{"x":62,"y":590,"t":17546,"event":"mousemove"},{"x":395,"y":637,"t":17564,"event":"mousemove"},{"x":434,"y":644,"t":17564,"event":"mousemove"},{"x":608,"y":663,"t":17581,"event":"mousemove"},{"x":659,"y":663,"t":17598,"event":"mousemove"},{"x":706,"y":663,"t":17640,"event":"mousemove"},{"x":832,"y":594,"t":17647,"event":"mousemove"},{"x":843,"y":578,"t":17664,"event":"mousemove"},{"x":845,"y":569,"t":17681,"event":"mousemove"},{"x":845,"y":564,"t":17697,"event":"mousemove"},{"x":845,"y":555,"t":17714,"event":"mousemove"},{"x":845,"y":542,"t":17731,"event":"mousemove"},{"x":845,"y":536,"t":17748,"event":"mousemove"},{"x":845,"y":533,"t":17764,"event":"mousemove"},{"x":845,"y":528,"t":17782,"event":"mousemove"},{"x":847,"y":525,"t":17797,"event":"mousemove"},{"x":848,"y":525,"t":17815,"event":"mousemove"},{"x":848,"y":523,"t":17859,"event":"mousemove"},{"x":848,"y":521,"t":17868,"event":"mousemove"},{"x":848,"y":519,"t":17878,"event":"mousemove"},{"x":848,"y":518,"t":17881,"event":"mousemove"},{"x":848,"y":514,"t":17885,"event":"mousemove"},{"x":848,"y":513,"t":17887,"event":"mousemove"},{"x":845,"y":506,"t":17903,"event":"mousemove"},{"x":823,"y":486,"t":17920,"event":"mousemove"},{"x":792,"y":457,"t":17936,"event":"mousemove"},{"x":759,"y":414,"t":17953,"event":"mousemove"},{"x":732,"y":384,"t":17969,"event":"mousemove"},{"x":695,"y":349,"t":17986,"event":"mousemove"},{"x":676,"y":325,"t":18004,"event":"mousemove"},{"x":666,"y":310,"t":18020,"event":"mousemove"},{"x":658,"y":296,"t":18036,"event":"mousemove"},{"x":654,"y":282,"t":18053,"event":"mousemove"},{"x":649,"y":271,"t":18070,"event":"mousemove"},{"x":646,"y":263,"t":18086,"event":"mousemove"},{"x":646,"y":260,"t":18103,"event":"mousemove"},{"x":642,"y":254,"t":18120,"event":"mousemove"},{"x":642,"y":253,"t":18160,"event":"mousemove"},{"x":642,"y":251,"t":18170,"event":"mousemove"},{"x":641,"y":251,"t":18187,"event":"mousemove"}],"mouse_tracking_targets":{},"correct":false},{"rt":2484,"stimulus":"<p>How confident are you about your choice ?</p>","slider_start":50,"response":67,"trial_type":"html-slider-response","trial_index":5,"time_elapsed":27248,"internal_node_id":"0.0-3.0-2.0"},{"rt":null,"stimulus":"\n        <div id='jspsych-image' style='position: relative; width: min(80vw, 80vh); height: min(80vw, 80vh);'>\n                \n                <div style='position: absolute; top: 40%; left: 30%; bottom: 40%; right: 30%;'><h1 style='font-size: 60px; color: red'>Wrong</h1></div>\n                \n                <div class='jspsych-image' id='jspsych-image-0' data-choice='0' style='top: 0;     left: 0;'><img style=\"width: 100%; height: 100%;\" src='../static/human_exp_images/practice_img/00_2.png' class='wrong-choice'></img></div>\n                <div class='jspsych-image' id='jspsych-image-1' data-choice='1' style='top: 0;     right: 0;'><img style=\"width: 100%; height: 100%;\" src='../static/human_exp_images/practice_img/00_1.png' class=''></img></div>\n                <div class='jspsych-image' id='jspsych-image-2' data-choice='2' style='bottom: 0;  left: 0;'><img style=\"width: 100%; height: 100%;\" src='../static/human_exp_images/practice_img/00_3.png' class='correct-choice'></img></div>\n                <div class='jspsych-image' id='jspsych-image-3' data-choice='3' style='bottom: 0;  right: 0;'><img style=\"width: 100%; height: 100%;\" src='../static/human_exp_images/practice_img/00_0.png' class=''></img></div>\n\n        </div>","response":null,"trial_type":"html-keyboard-response","trial_index":6,"time_elapsed":29753,"internal_node_id":"0.0-3.0-3.0"},{"rt":null,"trial_type":"image-click","trial_index":7,"time_elapsed":41493,"internal_node_id":"0.0-3.0-0.1"},{"rt":18343,"response":1,"all_choices":["../static/human_exp_images/practice_img/01_2.png","../static/human_exp_images/practice_img/01_3.png","../static/human_exp_images/practice_img/01_1.png","../static/human_exp_images/practice_img/01_0.png"],"task":"response","correct_response":1,"shuffled_array":[2,3,1,0],"trial_type":"image-click","trial_index":8,"time_elapsed":59838,"internal_node_id":"0.0-3.0-1.1","mouse_tracking_data":[{"x":748,"y":439,"t":0,"event":"mousemove"},{"x":765,"y":439,"t":14,"event":"mousemove"},{"x":780,"y":439,"t":32,"event":"mousemove"},{"x":790,"y":439,"t":47,"event":"mousemove"},{"x":802,"y":439,"t":64,"event":"mousemove"},{"x":809,"y":439,"t":82,"event":"mousemove"},{"x":814,"y":439,"t":98,"event":"mousemove"},{"x":819,"y":439,"t":115,"event":"mousemove"},{"x":824,"y":439,"t":131,"event":"mousemove"},{"x":828,"y":439,"t":148,"event":"mousemove"},{"x":830,"y":439,"t":172,"event":"mousemove"},{"x":831,"y":439,"t":191,"event":"mousemove"},{"x":827,"y":439,"t":3220,"event":"mousemove"},{"x":819,"y":439,"t":3222,"event":"mousemove"},{"x":797,"y":439,"t":3227,"event":"mousemove"},{"x":785,"y":439,"t":3227,"event":"mousemove"},{"x":719,"y":469,"t":3244,"event":"mousemove"},{"x":651,"y":491,"t":3261,"event":"mousemove"},{"x":508,"y":510,"t":3277,"event":"mousemove"},{"x":269,"y":510,"t":3295,"event":"mousemove"},{"x":112,"y":510,"t":3310,"event":"mousemove"},{"x":1232,"y":861,"t":10284,"event":"mousemove"},{"x":1120,"y":861,"t":10287,"event":"mousemove"},{"x":879,"y":861,"t":10301,"event":"mousemove"},{"x":524,"y":841,"t":10318,"event":"mousemove"},{"x":183,"y":794,"t":10335,"event":"mousemove"},{"x":9,"y":767,"t":10351,"event":"mousemove"},{"x":97,"y":328,"t":17307,"event":"mousemove"},{"x":217,"y":366,"t":17323,"event":"mousemove"},{"x":336,"y":419,"t":17340,"event":"mousemove"},{"x":432,"y":464,"t":17357,"event":"mousemove"},{"x":520,"y":517,"t":17373,"event":"mousemove"},{"x":563,"y":547,"t":17391,"event":"mousemove"},{"x":612,"y":565,"t":17407,"event":"mousemove"},{"x":651,"y":577,"t":17423,"event":"mousemove"},{"x":677,"y":577,"t":17441,"event":"mousemove"},{"x":697,"y":577,"t":17456,"event":"mousemove"},{"x":710,"y":577,"t":17473,"event":"mousemove"},{"x":722,"y":577,"t":17491,"event":"mousemove"},{"x":727,"y":577,"t":17507,"event":"mousemove"},{"x":731,"y":577,"t":17525,"event":"mousemove"},{"x":732,"y":577,"t":17571,"event":"mousemove"},{"x":734,"y":577,"t":17573,"event":"mousemove"},{"x":739,"y":577,"t":17591,"event":"mousemove"},{"x":743,"y":577,"t":17606,"event":"mousemove"},{"x":744,"y":577,"t":17642,"event":"mousemove"},{"x":744,"y":575,"t":17889,"event":"mousemove"},{"x":746,"y":573,"t":17898,"event":"mousemove"},{"x":746,"y":572,"t":17902,"event":"mousemove"},{"x":749,"y":570,"t":17908,"event":"mousemove"},{"x":751,"y":568,"t":17913,"event":"mousemove"},{"x":756,"y":561,"t":17918,"event":"mousemove"},{"x":764,"y":552,"t":17935,"event":"mousemove"},{"x":784,"y":524,"t":17952,"event":"mousemove"},{"x":823,"y":459,"t":17967,"event":"mousemove"},{"x":863,"y":386,"t":17985,"event":"mousemove"},{"x":903,"y":310,"t":18001,"event":"mousemove"},{"x":932,"y":266,"t":18018,"event":"mousemove"},{"x":947,"y":251,"t":18035,"event":"mousemove"},{"x":958,"y":245,"t":18051,"event":"mousemove"},{"x":965,"y":240,"t":18068,"event":"mousemove"},{"x":968,"y":238,"t":18084,"event":"mousemove"},{"x":973,"y":235,"t":18101,"event":"mousemove"},{"x":976,"y":233,"t":18117,"event":"mousemove"},{"x":983,"y":232,"t":18134,"event":"mousemove"},{"x":985,"y":232,"t":18151,"event":"mousemove"},{"x":990,"y":230,"t":18168,"event":"mousemove"},{"x":997,"y":226,"t":18186,"event":"mousemove"},{"x":1006,"y":223,"t":18201,"event":"mousemove"},{"x":1012,"y":221,"t":18218,"event":"mousemove"},{"x":1017,"y":218,"t":18235,"event":"mousemove"},{"x":1019,"y":218,"t":18254,"event":"mousemove"},{"x":1021,"y":218,"t":18272,"event":"mousemove"}],"mouse_tracking_targets":{},"correct":true},{"rt":2226,"stimulus":"<p>How confident are you about your choice ?</p>","slider_start":50,"response":74,"trial_type":"html-slider-response","trial_index":9,"time_elapsed":62067,"internal_node_id":"0.0-3.0-2.1"},{"rt":null,"stimulus":"\n        <div id='jspsych-image' style='position: relative; width: min(80vw, 80vh); height: min(80vw, 80vh);'>\n                \n                <div style='position: absolute; top: 40%; left: 30%; bottom: 40%; right: 30%;'><h1 style='font-size: 60px; color: green;'>Correct!</h1></div>\n                \n                <div class='jspsych-image' id='jspsych-image-0' data-choice='0' style='top: 0;     left: 0;'><img style=\"width: 100%; height: 100%;\" src='../static/human_exp_images/practice_img/01_2.png' class=''></img></div>\n                <div class='jspsych-image' id='jspsych-image-1' data-choice='1' style='top: 0;     right: 0;'><img style=\"width: 100%; height: 100%;\" src='../static/human_exp_images/practice_img/01_3.png' class='correct-choice'></img></div>\n                <div class='jspsych-image' id='jspsych-image-2' data-choice='2' style='bottom: 0;  left: 0;'><img style=\"width: 100%; height: 100%;\" src='../static/human_exp_images/practice_img/01_1.png' class=''></img></div>\n                <div class='jspsych-image' id='jspsych-image-3' data-choice='3' style='bottom: 0;  right: 0;'><img style=\"width: 100%; height: 100%;\" src='../static/human_exp_images/practice_img/01_0.png' class=''></img></div>\n\n        </div>","response":null,"trial_type":"html-keyboard-response","trial_index":10,"time_elapsed":63571,"internal_node_id":"0.0-3.0-3.1"},{"rt":null,"trial_type":"image-click","trial_index":11,"time_elapsed":63571,"internal_node_id":"0.0-3.0-0.2"},{"rt":12589,"response":0,"all_choices":["../static/human_exp_images/practice_img/02_3.png","../static/human_exp_images/practice_img/02_0.png","../static/human_exp_images/practice_img/02_2.png","../static/human_exp_images/practice_img/02_1.png"],"task":"response","correct_response":0,"shuffled_array":[3,0,2,1],"trial_type":"image-click","trial_index":12,"time_elapsed":76164,"internal_node_id":"0.0-3.0-1.2","mouse_tracking_data":[{"x":827,"y":531,"t":1999,"event":"mousemove"},{"x":823,"y":531,"t":2001,"event":"mousemove"},{"x":762,"y":521,"t":2017,"event":"mousemove"},{"x":598,"y":492,"t":2034,"event":"mousemove"},{"x":418,"y":470,"t":2050,"event":"mousemove"},{"x":66,"y":432,"t":2067,"event":"mousemove"},{"x":1264,"y":868,"t":8411,"event":"mousemove"},{"x":1251,"y":868,"t":8413,"event":"mousemove"},{"x":1201,"y":868,"t":8430,"event":"mousemove"},{"x":1144,"y":868,"t":8446,"event":"mousemove"},{"x":1091,"y":868,"t":8462,"event":"mousemove"},{"x":982,"y":840,"t":8480,"event":"mousemove"},{"x":772,"y":794,"t":8497,"event":"mousemove"},{"x":507,"y":761,"t":8513,"event":"mousemove"},{"x":136,"y":742,"t":8529,"event":"mousemove"},{"x":96,"y":450,"t":11452,"event":"mousemove"},{"x":225,"y":450,"t":11469,"event":"mousemove"},{"x":322,"y":450,"t":11485,"event":"mousemove"},{"x":428,"y":450,"t":11503,"event":"mousemove"},{"x":464,"y":450,"t":11518,"event":"mousemove"},{"x":524,"y":450,"t":11536,"event":"mousemove"},{"x":546,"y":450,"t":11553,"event":"mousemove"},{"x":553,"y":450,"t":11569,"event":"mousemove"},{"x":556,"y":450,"t":11585,"event":"mousemove"},{"x":565,"y":448,"t":11602,"event":"mousemove"},{"x":582,"y":440,"t":11619,"event":"mousemove"},{"x":592,"y":436,"t":11635,"event":"mousemove"},{"x":606,"y":426,"t":11652,"event":"mousemove"},{"x":614,"y":414,"t":11669,"event":"mousemove"},{"x":621,"y":402,"t":11686,"event":"mousemove"},{"x":623,"y":394,"t":11703,"event":"mousemove"},{"x":623,"y":390,"t":11719,"event":"mousemove"},{"x":623,"y":385,"t":11736,"event":"mousemove"},{"x":623,"y":383,"t":11752,"event":"mousemove"},{"x":623,"y":382,"t":11774,"event":"mousemove"},{"x":623,"y":380,"t":11790,"event":"mousemove"},{"x":623,"y":378,"t":11845,"event":"mousemove"},{"x":623,"y":376,"t":11871,"event":"mousemove"},{"x":623,"y":375,"t":11890,"event":"mousemove"},{"x":623,"y":373,"t":11907,"event":"mousemove"},{"x":623,"y":371,"t":11917,"event":"mousemove"},{"x":623,"y":368,"t":11925,"event":"mousemove"},{"x":623,"y":366,"t":11934,"event":"mousemove"},{"x":623,"y":365,"t":11942,"event":"mousemove"},{"x":623,"y":363,"t":11947,"event":"mousemove"},{"x":623,"y":361,"t":11953,"event":"mousemove"},{"x":623,"y":359,"t":11961,"event":"mousemove"},{"x":623,"y":356,"t":11971,"event":"mousemove"},{"x":623,"y":353,"t":11978,"event":"mousemove"},{"x":623,"y":351,"t":11983,"event":"mousemove"},{"x":623,"y":349,"t":11988,"event":"mousemove"},{"x":623,"y":347,"t":11990,"event":"mousemove"},{"x":623,"y":346,"t":12006,"event":"mousemove"},{"x":623,"y":341,"t":12022,"event":"mousemove"},{"x":623,"y":337,"t":12039,"event":"mousemove"},{"x":623,"y":332,"t":12056,"event":"mousemove"},{"x":623,"y":330,"t":12073,"event":"mousemove"},{"x":623,"y":327,"t":12089,"event":"mousemove"},{"x":623,"y":325,"t":12106,"event":"mousemove"},{"x":623,"y":324,"t":12124,"event":"mousemove"},{"x":623,"y":322,"t":12143,"event":"mousemove"},{"x":623,"y":320,"t":12169,"event":"mousemove"},{"x":623,"y":318,"t":12187,"event":"mousemove"},{"x":623,"y":317,"t":12205,"event":"mousemove"},{"x":623,"y":315,"t":12223,"event":"mousemove"},{"x":623,"y":313,"t":12250,"event":"mousemove"}],"mouse_tracking_targets":{},"correct":true},{"rt":2414,"stimulus":"<p>How confident are you about your choice ?</p>","slider_start":50,"response":72,"trial_type":"html-slider-response","trial_index":13,"time_elapsed":78579,"internal_node_id":"0.0-3.0-2.2"},{"rt":null,"stimulus":"\n        <div id='jspsych-image' style='position: relative; width: min(80vw, 80vh); height: min(80vw, 80vh);'>\n                \n                <div style='position: absolute; top: 40%; left: 30%; bottom: 40%; right: 30%;'><h1 style='font-size: 60px; color: green;'>Correct!</h1></div>\n                \n                <div class='jspsych-image' id='jspsych-image-0' data-choice='0' style='top: 0;     left: 0;'><img style=\"width: 100%; height: 100%;\" src='../static/human_exp_images/practice_img/02_3.png' class='correct-choice'></img></div>\n                <div class='jspsych-image' id='jspsych-image-1' data-choice='1' style='top: 0;     right: 0;'><img style=\"width: 100%; height: 100%;\" src='../static/human_exp_images/practice_img/02_0.png' class=''></img></div>\n                <div class='jspsych-image' id='jspsych-image-2' data-choice='2' style='bottom: 0;  left: 0;'><img style=\"width: 100%; height: 100%;\" src='../static/human_exp_images/practice_img/02_2.png' class=''></img></div>\n                <div class='jspsych-image' id='jspsych-image-3' data-choice='3' style='bottom: 0;  right: 0;'><img style=\"width: 100%; height: 100%;\" src='../static/human_exp_images/practice_img/02_1.png' class=''></img></div>\n\n        </div>","response":null,"trial_type":"html-keyboard-response","trial_index":14,"time_elapsed":80084,"internal_node_id":"0.0-3.0-3.2"},{"rt":822319,"stimulus":"<p style='font-size: 40px'>The practice session is over. The experiment begin now!</p> <p>Press any key to begin.</p>","response":"arrowleft","trial_type":"html-keyboard-response","trial_index":15,"time_elapsed":902405,"internal_node_id":"0.0-4.0"},{"rt":597,"stimulus":"<h1 style='font-size: 60px'>New Rule!</h1> <p>Press any key to begin.</p>","response":"arrowright","trial_type":"html-keyboard-response","trial_index":16,"time_elapsed":903005,"internal_node_id":"0.0-5.0"},{"rt":null,"trial_type":"image-click","trial_index":17,"time_elapsed":905957,"internal_node_id":"0.0-6.0-0.0"},{"rt":3125,"response":2,"all_choices":["../static/human_exp_images/task_size/00_1.png","../static/human_exp_images/task_size/00_0.png","../static/human_exp_images/task_size/00_3.png","../static/human_exp_images/task_size/00_2.png"],"task":"response","correct_response":2,"shuffled_array":[1,0,3,2],"trial_type":"image-click","trial_index":18,"time_elapsed":909094,"internal_node_id":"0.0-6.0-1.0","mouse_tracking_data":[{"x":922,"y":417,"t":2,"event":"mousemove"},{"x":910,"y":422,"t":4,"event":"mousemove"},{"x":901,"y":425,"t":21,"event":"mousemove"},{"x":891,"y":429,"t":38,"event":"mousemove"},{"x":886,"y":432,"t":54,"event":"mousemove"},{"x":881,"y":434,"t":71,"event":"mousemove"},{"x":877,"y":435,"t":88,"event":"mousemove"},{"x":875,"y":435,"t":104,"event":"mousemove"},{"x":874,"y":435,"t":129,"event":"mousemove"},{"x":872,"y":435,"t":139,"event":"mousemove"},{"x":867,"y":437,"t":163,"event":"mousemove"},{"x":865,"y":439,"t":176,"event":"mousemove"},{"x":863,"y":441,"t":187,"event":"mousemove"},{"x":862,"y":441,"t":204,"event":"mousemove"},{"x":860,"y":441,"t":220,"event":"mousemove"},{"x":859,"y":441,"t":2150,"event":"mousemove"},{"x":855,"y":441,"t":2159,"event":"mousemove"},{"x":852,"y":441,"t":2162,"event":"mousemove"},{"x":848,"y":441,"t":2169,"event":"mousemove"},{"x":845,"y":441,"t":2171,"event":"mousemove"},{"x":841,"y":441,"t":2176,"event":"mousemove"},{"x":840,"y":441,"t":2181,"event":"mousemove"},{"x":835,"y":444,"t":2186,"event":"mousemove"},{"x":833,"y":446,"t":2187,"event":"mousemove"},{"x":824,"y":452,"t":2204,"event":"mousemove"},{"x":809,"y":464,"t":2220,"event":"mousemove"},{"x":795,"y":476,"t":2237,"event":"mousemove"},{"x":781,"y":491,"t":2254,"event":"mousemove"},{"x":768,"y":505,"t":2270,"event":"mousemove"},{"x":760,"y":513,"t":2287,"event":"mousemove"},{"x":750,"y":525,"t":2304,"event":"mousemove"},{"x":743,"y":536,"t":2320,"event":"mousemove"},{"x":732,"y":549,"t":2338,"event":"mousemove"},{"x":724,"y":563,"t":2353,"event":"mousemove"},{"x":719,"y":575,"t":2370,"event":"mousemove"},{"x":715,"y":579,"t":2387,"event":"mousemove"},{"x":712,"y":588,"t":2404,"event":"mousemove"},{"x":708,"y":593,"t":2420,"event":"mousemove"},{"x":705,"y":596,"t":2437,"event":"mousemove"},{"x":701,"y":603,"t":2453,"event":"mousemove"},{"x":698,"y":610,"t":2471,"event":"mousemove"},{"x":695,"y":615,"t":2488,"event":"mousemove"},{"x":693,"y":618,"t":2503,"event":"mousemove"},{"x":691,"y":622,"t":2520,"event":"mousemove"},{"x":691,"y":623,"t":2537,"event":"mousemove"},{"x":689,"y":623,"t":2554,"event":"mousemove"}],"mouse_tracking_targets":{},"correct":true},{"rt":1648,"stimulus":"<p>How confident are you about your choice ?</p>","slider_start":50,"response":50,"trial_type":"html-slider-response","trial_index":19,"time_elapsed":910745,"internal_node_id":"0.0-6.0-2.0"},{"rt":null,"stimulus":"\n        <div id='jspsych-image' style='position: relative; width: min(80vw, 80vh); height: min(80vw, 80vh);'>\n                \n                <div style='position: absolute; top: 40%; left: 30%; bottom: 40%; right: 30%;'><h1 style='font-size: 60px; color: green;'>Correct!</h1></div>\n                \n                <div class='jspsych-image' id='jspsych-image-0' data-choice='0' style='top: 0;     left: 0;'><img style=\"width: 100%; height: 100%;\" src='../static/human_exp_images/task_size/00_1.png' class=''></img></div>\n                <div class='jspsych-image' id='jspsych-image-1' data-choice='1' style='top: 0;     right: 0;'><img style=\"width: 100%; height: 100%;\" src='../static/human_exp_images/task_size/00_0.png' class=''></img></div>\n                <div class='jspsych-image' id='jspsych-image-2' data-choice='2' style='bottom: 0;  left: 0;'><img style=\"width: 100%; height: 100%;\" src='../static/human_exp_images/task_size/00_3.png' class='correct-choice'></img></div>\n                <div class='jspsych-image' id='jspsych-image-3' data-choice='3' style='bottom: 0;  right: 0;'><img style=\"width: 100%; height: 100%;\" src='../static/human_exp_images/task_size/00_2.png' class=''></img></div>\n\n        </div>","response":null,"trial_type":"html-keyboard-response","trial_index":20,"time_elapsed":912249,"internal_node_id":"0.0-6.0-3.0"},{"rt":null,"trial_type":"image-click","trial_index":21,"time_elapsed":914612,"internal_node_id":"0.0-6.0-0.1"},{"rt":1426,"response":2,"all_choices":["../static/human_exp_images/task_size/01_1.png","../static/human_exp_images/task_size/01_0.png","../static/human_exp_images/task_size/01_3.png","../static/human_exp_images/task_size/01_2.png"],"task":"response","correct_response":2,"shuffled_array":[1,0,3,2],"trial_type":"image-click","trial_index":22,"time_elapsed":916041,"internal_node_id":"0.0-6.0-1.1","mouse_tracking_data":[{"x":821,"y":533,"t":0,"event":"mousemove"},{"x":821,"y":523,"t":14,"event":"mousemove"},{"x":821,"y":514,"t":30,"event":"mousemove"},{"x":821,"y":507,"t":46,"event":"mousemove"},{"x":821,"y":504,"t":63,"event":"mousemove"},{"x":821,"y":502,"t":80,"event":"mousemove"},{"x":819,"y":502,"t":688,"event":"mousemove"},{"x":817,"y":502,"t":700,"event":"mousemove"},{"x":814,"y":502,"t":722,"event":"mousemove"},{"x":812,"y":502,"t":723,"event":"mousemove"},{"x":809,"y":502,"t":739,"event":"mousemove"},{"x":804,"y":502,"t":756,"event":"mousemove"},{"x":800,"y":502,"t":772,"event":"mousemove"},{"x":797,"y":504,"t":789,"event":"mousemove"},{"x":795,"y":506,"t":806,"event":"mousemove"},{"x":795,"y":507,"t":822,"event":"mousemove"},{"x":793,"y":509,"t":840,"event":"mousemove"},{"x":792,"y":509,"t":934,"event":"mousemove"},{"x":790,"y":511,"t":998,"event":"mousemove"},{"x":788,"y":513,"t":1006,"event":"mousemove"},{"x":787,"y":514,"t":1013,"event":"mousemove"},{"x":785,"y":516,"t":1022,"event":"mousemove"},{"x":783,"y":516,"t":1027,"event":"mousemove"},{"x":782,"y":519,"t":1031,"event":"mousemove"},{"x":778,"y":523,"t":1042,"event":"mousemove"},{"x":775,"y":526,"t":1050,"event":"mousemove"},{"x":773,"y":528,"t":1052,"event":"mousemove"},{"x":771,"y":530,"t":1059,"event":"mousemove"},{"x":770,"y":531,"t":1063,"event":"mousemove"},{"x":768,"y":533,"t":1068,"event":"mousemove"},{"x":766,"y":535,"t":1072,"event":"mousemove"},{"x":764,"y":538,"t":1077,"event":"mousemove"},{"x":763,"y":540,"t":1077,"event":"mousemove"},{"x":761,"y":542,"t":1087,"event":"mousemove"},{"x":759,"y":543,"t":1088,"event":"mousemove"},{"x":758,"y":545,"t":1096,"event":"mousemove"},{"x":756,"y":547,"t":1098,"event":"mousemove"},{"x":754,"y":548,"t":1105,"event":"mousemove"},{"x":754,"y":550,"t":1108,"event":"mousemove"},{"x":751,"y":552,"t":1114,"event":"mousemove"},{"x":751,"y":554,"t":1119,"event":"mousemove"},{"x":749,"y":557,"t":1124,"event":"mousemove"},{"x":747,"y":559,"t":1125,"event":"mousemove"},{"x":746,"y":562,"t":1142,"event":"mousemove"},{"x":739,"y":571,"t":1158,"event":"mousemove"},{"x":730,"y":585,"t":1175,"event":"mousemove"},{"x":723,"y":594,"t":1192,"event":"mousemove"},{"x":719,"y":599,"t":1208,"event":"mousemove"},{"x":709,"y":611,"t":1224,"event":"mousemove"},{"x":706,"y":613,"t":1241,"event":"mousemove"},{"x":702,"y":618,"t":1258,"event":"mousemove"},{"x":700,"y":622,"t":1276,"event":"mousemove"},{"x":699,"y":623,"t":1291,"event":"mousemove"},{"x":697,"y":623,"t":1308,"event":"mousemove"}],"mouse_tracking_targets":{},"correct":true},{"rt":1424,"stimulus":"<p>How confident are you about your choice ?</p>","slider_start":50,"response":50,"trial_type":"html-slider-response","trial_index":23,"time_elapsed":917466,"internal_node_id":"0.0-6.0-2.1"},{"rt":null,"stimulus":"\n        <div id='jspsych-image' style='position: relative; width: min(80vw, 80vh); height: min(80vw, 80vh);'>\n                \n                <div style='position: absolute; top: 40%; left: 30%; bottom: 40%; right: 30%;'><h1 style='font-size: 60px; color: green;'>Correct!</h1></div>\n                \n                <div class='jspsych-image' id='jspsych-image-0' data-choice='0' style='top: 0;     left: 0;'><img style=\"width: 100%; height: 100%;\" src='../static/human_exp_images/task_size/01_1.png' class=''></img></div>\n                <div class='jspsych-image' id='jspsych-image-1' data-choice='1' style='top: 0;     right: 0;'><img style=\"width: 100%; height: 100%;\" src='../static/human_exp_images/task_size/01_0.png' class=''></img></div>\n                <div class='jspsych-image' id='jspsych-image-2' data-choice='2' style='bottom: 0;  left: 0;'><img style=\"width: 100%; height: 100%;\" src='../static/human_exp_images/task_size/01_3.png' class='correct-choice'></img></div>\n                <div class='jspsych-image' id='jspsych-image-3' data-choice='3' style='bottom: 0;  right: 0;'><img style=\"width: 100%; height: 100%;\" src='../static/human_exp_images/task_size/01_2.png' class=''></img></div>\n\n        </div>","response":null,"trial_type":"html-keyboard-response","trial_index":24,"time_elapsed":918968,"internal_node_id":"0.0-6.0-3.1"},{"rt":null,"trial_type":"image-click","trial_index":25,"time_elapsed":919724,"internal_node_id":"0.0-6.0-0.2"},{"rt":1224,"response":1,"all_choices":["../static/human_exp_images/task_size/02_0.png","../static/human_exp_images/task_size/02_3.png","../static/human_exp_images/task_size/02_2.png","../static/human_exp_images/task_size/02_1.png"],"task":"response","correct_response":1,"shuffled_array":[0,3,2,1],"trial_type":"image-click","trial_index":26,"time_elapsed":920960,"internal_node_id":"0.0-6.0-1.2","mouse_tracking_data":[{"x":823,"y":543,"t":1,"event":"mousemove"},{"x":823,"y":530,"t":4,"event":"mousemove"},{"x":823,"y":518,"t":21,"event":"mousemove"},{"x":823,"y":509,"t":38,"event":"mousemove"},{"x":823,"y":502,"t":55,"event":"mousemove"},{"x":823,"y":494,"t":71,"event":"mousemove"},{"x":823,"y":489,"t":88,"event":"mousemove"},{"x":823,"y":485,"t":106,"event":"mousemove"},{"x":823,"y":482,"t":121,"event":"mousemove"},{"x":823,"y":480,"t":138,"event":"mousemove"},{"x":823,"y":478,"t":154,"event":"mousemove"},{"x":823,"y":477,"t":174,"event":"mousemove"},{"x":823,"y":475,"t":192,"event":"mousemove"},{"x":823,"y":474,"t":729,"event":"mousemove"},{"x":823,"y":472,"t":732,"event":"mousemove"},{"x":823,"y":463,"t":747,"event":"mousemove"},{"x":830,"y":451,"t":765,"event":"mousemove"},{"x":852,"y":422,"t":781,"event":"mousemove"},{"x":879,"y":388,"t":798,"event":"mousemove"},{"x":896,"y":358,"t":814,"event":"mousemove"},{"x":913,"y":341,"t":831,"event":"mousemove"},{"x":928,"y":324,"t":848,"event":"mousemove"},{"x":938,"y":314,"t":865,"event":"mousemove"},{"x":951,"y":303,"t":881,"event":"mousemove"},{"x":956,"y":300,"t":898,"event":"mousemove"},{"x":979,"y":281,"t":915,"event":"mousemove"},{"x":986,"y":276,"t":931,"event":"mousemove"},{"x":994,"y":271,"t":947,"event":"mousemove"},{"x":998,"y":270,"t":964,"event":"mousemove"},{"x":1006,"y":264,"t":981,"event":"mousemove"},{"x":1015,"y":261,"t":998,"event":"mousemove"},{"x":1020,"y":258,"t":1015,"event":"mousemove"},{"x":1023,"y":258,"t":1032,"event":"mousemove"},{"x":1025,"y":256,"t":1047,"event":"mousemove"},{"x":1025,"y":254,"t":1065,"event":"mousemove"}],"mouse_tracking_targets":{},"correct":true},{"rt":2140,"stimulus":"<p>How confident are you about your choice ?</p>","slider_start":50,"response":67,"trial_type":"html-slider-response","trial_index":27,"time_elapsed":923102,"internal_node_id":"0.0-6.0-2.2"},{"rt":null,"stimulus":"\n        <div id='jspsych-image' style='position: relative; width: min(80vw, 80vh); height: min(80vw, 80vh);'>\n                \n                <div style='position: absolute; top: 40%; left: 30%; bottom: 40%; right: 30%;'><h1 style='font-size: 60px; color: green;'>Correct!</h1></div>\n                \n                <div class='jspsych-image' id='jspsych-image-0' data-choice='0' style='top: 0;     left: 0;'><img style=\"width: 100%; height: 100%;\" src='../static/human_exp_images/task_size/02_0.png' class=''></img></div>\n                <div class='jspsych-image' id='jspsych-image-1' data-choice='1' style='top: 0;     right: 0;'><img style=\"width: 100%; height: 100%;\" src='../static/human_exp_images/task_size/02_3.png' class='correct-choice'></img></div>\n                <div class='jspsych-image' id='jspsych-image-2' data-choice='2' style='bottom: 0;  left: 0;'><img style=\"width: 100%; height: 100%;\" src='../static/human_exp_images/task_size/02_2.png' class=''></img></div>\n                <div class='jspsych-image' id='jspsych-image-3' data-choice='3' style='bottom: 0;  right: 0;'><img style=\"width: 100%; height: 100%;\" src='../static/human_exp_images/task_size/02_1.png' class=''></img></div>\n\n        </div>","response":null,"trial_type":"html-keyboard-response","trial_index":28,"time_elapsed":924606,"internal_node_id":"0.0-6.0-3.2"},{"rt":728667,"stimulus":"<p>You responded correctly on 83% of the trials.</p>\n    <p>Your average response time was 7341ms.</p>\n    <p>Press any key to complete the experiment. Thank you!</p>","response":" ","trial_type":"html-keyboard-response","trial_index":29,"time_elapsed":1653276,"internal_node_id":"0.0-7.0","interactions":"[{\"event\":\"blur\",\"trial\":4,\"time\":8595},{\"event\":\"focus\",\"trial\":4,\"time\":8604},{\"event\":\"blur\",\"trial\":4,\"time\":8759},{\"event\":\"focus\",\"trial\":4,\"time\":12027},{\"event\":\"blur\",\"trial\":4,\"time\":12306},{\"event\":\"focus\",\"trial\":4,\"time\":18290},{\"event\":\"blur\",\"trial\":4,\"time\":18300},{\"event\":\"focus\",\"trial\":4,\"time\":24747},{\"event\":\"blur\",\"trial\":6,\"time\":29371},{\"event\":\"focus\",\"trial\":8,\"time\":45904},{\"event\":\"blur\",\"trial\":8,\"time\":46137},{\"event\":\"focus\",\"trial\":8,\"time\":51317},{\"event\":\"blur\",\"trial\":8,\"time\":51329},{\"event\":\"focus\",\"trial\":8,\"time\":59827},{\"event\":\"blur\",\"trial\":12,\"time\":66582},{\"event\":\"focus\",\"trial\":12,\"time\":66623},{\"event\":\"blur\",\"trial\":12,\"time\":66878},{\"event\":\"focus\",\"trial\":12,\"time\":71336},{\"event\":\"blur\",\"trial\":12,\"time\":71343},{\"event\":\"focus\",\"trial\":12,\"time\":71347},{\"event\":\"blur\",\"trial\":12,\"time\":71353},{\"event\":\"focus\",\"trial\":12,\"time\":76126},{\"event\":\"blur\",\"trial\":14,\"time\":79486},{\"event\":\"focus\",\"trial\":14,\"time\":79497},{\"event\":\"blur\",\"trial\":14,\"time\":79531},{\"event\":\"focus\",\"trial\":15,\"time\":145549},{\"event\":\"blur\",\"trial\":15,\"time\":162433},{\"event\":\"focus\",\"trial\":15,\"time\":769181},{\"event\":\"blur\",\"trial\":15,\"time\":769232},{\"event\":\"focus\",\"trial\":15,\"time\":891082},{\"event\":\"blur\",\"trial\":29,\"time\":930355},{\"event\":\"focus\",\"trial\":29,\"time\":931244},{\"event\":\"blur\",\"trial\":29,\"time\":935292},{\"event\":\"focus\",\"trial\":29,\"time\":1652844}]"}]