[{"success":true,"timeout":false,"failed_images":[],"failed_audio":[],"failed_video":[],"trial_type":"preload","trial_index":0,"time_elapsed":11,"internal_node_id":"0.0-0.0"},{"rt":1733,"stimulus":"<p style='font-size: 40px'>Welcome to the experiment.</p><p style='font-size: 30px'>Press any key to begin.</p>","response":" ","trial_type":"html-keyboard-response","trial_index":1,"time_elapsed":1746,"internal_node_id":"0.0-1.0"},{"rt":3027,"stimulus":"\n    <p>In this experiment, 4 images will appear on the screen. 3 out of 4 images were generated with a certain rule while one image (the odd one out) does not respect this rule. Select the odd one out by clicking on the image.</p>\n    <p>Following your choice, you will be asked to rate how confident you were about your choice on a scale from 1 to 100. Then, you will receive feedback on the trial.</p>\n    <p>For each rule you will perform 20 trials. You will be notified at each rule change. </p>\n    <p> Press any button to continue </p>\n    <div style='margin: auto; position: relative; width: 400px; height: 400px;'>\n        <div style='position: absolute; top: 0;     left: 0; '><img src='../static/img/square.png'></img></div>\n        <div style='position: absolute; top: 0;     right: 0;'><img src='../static/img/square.png'></img></div>\n        <div style='position: absolute; bottom: 0;  left: 0; '><img src='../static/img/square.png'></img></div>\n        <div style='position: absolute; bottom: 0;  right: 0;'><img src='../static/img/square.png'></img></div>\n    </div>\n","response":" ","trial_type":"html-keyboard-response","trial_index":2,"time_elapsed":4776,"internal_node_id":"0.0-2.0"},{"rt":1004,"stimulus":"<h1 style='font-size: 60px'>New Rule!</h1> <p>Press any key to begin.</p>","response":" ","trial_type":"html-keyboard-response","trial_index":3,"time_elapsed":7782,"internal_node_id":"0.0-3.0"},{"rt":1011,"response":3,"all_choices":["../static/human_exp_images/task_shape/00_3.png","../static/human_exp_images/task_shape/00_2.png","../static/human_exp_images/task_shape/00_1.png","../static/human_exp_images/task_shape/00_0.png"],"task":"response","correct_response":0,"shuffled_array":[3,2,1,0],"trial_type":"image-click","trial_index":4,"time_elapsed":8795,"internal_node_id":"0.0-4.0-0.0","mouse_tracking_data":[{"x":960,"y":438,"t":388,"event":"mousemove"},{"x":963,"y":438,"t":441,"event":"mousemove"},{"x":965,"y":438,"t":445,"event":"mousemove"},{"x":968,"y":438,"t":449,"event":"mousemove"},{"x":975,"y":438,"t":466,"event":"mousemove"},{"x":985,"y":438,"t":483,"event":"mousemove"},{"x":994,"y":441,"t":499,"event":"mousemove"},{"x":1001,"y":447,"t":517,"event":"mousemove"},{"x":1004,"y":450,"t":532,"event":"mousemove"},{"x":1009,"y":453,"t":549,"event":"mousemove"},{"x":1016,"y":455,"t":566,"event":"mousemove"},{"x":1031,"y":460,"t":583,"event":"mousemove"},{"x":1047,"y":470,"t":599,"event":"mousemove"},{"x":1063,"y":488,"t":617,"event":"mousemove"},{"x":1075,"y":508,"t":633,"event":"mousemove"},{"x":1084,"y":525,"t":650,"event":"mousemove"},{"x":1090,"y":536,"t":667,"event":"mousemove"},{"x":1097,"y":546,"t":682,"event":"mousemove"},{"x":1103,"y":556,"t":700,"event":"mousemove"},{"x":1110,"y":565,"t":716,"event":"mousemove"},{"x":1117,"y":572,"t":733,"event":"mousemove"},{"x":1126,"y":577,"t":748,"event":"mousemove"},{"x":1136,"y":582,"t":766,"event":"mousemove"},{"x":1146,"y":586,"t":782,"event":"mousemove"},{"x":1160,"y":594,"t":799,"event":"mousemove"},{"x":1174,"y":603,"t":816,"event":"mousemove"},{"x":1182,"y":611,"t":833,"event":"mousemove"},{"x":1187,"y":618,"t":849,"event":"mousemove"},{"x":1189,"y":623,"t":865,"event":"mousemove"},{"x":1191,"y":623,"t":883,"event":"mousemove"}],"mouse_tracking_targets":{},"correct":false},{"rt":1252,"stimulus":"<p>How confident are you about your choice ?</p>","slider_start":50,"response":50,"trial_type":"html-slider-response","trial_index":5,"time_elapsed":10050,"internal_node_id":"0.0-4.0-1.0"},{"rt":null,"stimulus":"\n        <div id='jspsych-image' style='position: relative; width: min(80vw, 80vh); height: min(80vw, 80vh);'>\n                \n                <div style='position: absolute; top: 40%; left: 30%; bottom: 40%; right: 30%;'><h1 style='font-size: 60px; color: red'>Wrong</h1></div>\n                \n                <div class='jspsych-image' id='jspsych-image-0' data-choice='0' style='top: 0;     left: 0;'><img style=\"max-width: 100%; max-height: 100%;\" src='../static/human_exp_images/task_shape/00_3.png' class='correct-choice'></img></div>\n                <div class='jspsych-image' id='jspsych-image-1' data-choice='1' style='top: 0;     right: 0;'><img style=\"max-width: 100%; max-height: 100%;\" src='../static/human_exp_images/task_shape/00_2.png' class=''></img></div>\n                <div class='jspsych-image' id='jspsych-image-2' data-choice='2' style='bottom: 0;  left: 0;'><img style=\"max-width: 100%; max-height: 100%;\" src='../static/human_exp_images/task_shape/00_1.png' class=''></img></div>\n                <div class='jspsych-image' id='jspsych-image-3' data-choice='3' style='bottom: 0;  right: 0;'><img style=\"max-width: 100%; max-height: 100%;\" src='../static/human_exp_images/task_shape/00_0.png' class='wrong-choice'></img></div>\n\n        </div>","response":null,"trial_type":"html-keyboard-response","trial_index":6,"time_elapsed":12554,"internal_node_id":"0.0-4.0-2.0"},{"rt":899,"stimulus":"<p>You responded correctly on 0% of the trials.</p>\n    <p>Your average response time was NaNms.</p>\n    <p>Press any key to complete the experiment. Thank you!</p>","response":" ","trial_type":"html-keyboard-response","trial_index":7,"time_elapsed":13454,"internal_node_id":"0.0-5.0","interactions":"[]"}]