[{"success":true,"timeout":false,"failed_images":[],"failed_audio":[],"failed_video":[],"trial_type":"preload","trial_index":0,"time_elapsed":82,"internal_node_id":"0.0-0.0"},{"rt":789,"stimulus":"<p style='font-size: 40px'>Welcome to the experiment.</p><p style='font-size: 30px'>Press any key to begin.</p>","response":" ","trial_type":"html-keyboard-response","trial_index":1,"time_elapsed":872,"internal_node_id":"0.0-1.0"},{"rt":812,"stimulus":"\n    <p>In this experiment, 4 images will appear on the screen. 3 out of 4 images were generated with a certain rule while one image (the odd one out) does not respect this rule.</p>\n    <p>Select the odd one out by clicking on the image.</p>\n    <p>Following your choice, you will be asked to rate how confident you were about your choice on a scale from 1 to 100. Then, you will receive feedback on the trial.</p>\n    <p>For each rule you will perform 21 trials. You will be notified at each rule change.</p>\n    <p>The following 3 trials will allow you to get familiar with the odd-one-out task. The experiment starts after this practice session.</p>\n    \n    <p>Press any button to continue</p>\n    <div style='margin: auto; position: relative; width: 400px; height: 400px;'>\n        <div style='position: absolute; top: 0;     left: 0; '><img src='../static/img/square.png'></img></div>\n        <div style='position: absolute; top: 0;     right: 0;'><img src='../static/img/square.png'></img></div>\n        <div style='position: absolute; bottom: 0;  left: 0; '><img src='../static/img/square.png'></img></div>\n        <div style='position: absolute; bottom: 0;  right: 0;'><img src='../static/img/square.png'></img></div>\n    </div>\n","response":" ","trial_type":"html-keyboard-response","trial_index":2,"time_elapsed":1688,"internal_node_id":"0.0-2.0"},{"rt":null,"trial_type":"image-click","trial_index":3,"time_elapsed":4134,"internal_node_id":"0.0-3.0-0.0"},{"rt":1617,"response":2,"all_choices":["../static/human_exp_images/practice_img/00_2.png","../static/human_exp_images/practice_img/00_0.png","../static/human_exp_images/practice_img/00_3.png","../static/human_exp_images/practice_img/00_1.png"],"task":"response","correct_response":2,"shuffled_array":[2,0,3,1],"catch_trial":false,"trial_type":"image-click","trial_index":4,"time_elapsed":5753,"internal_node_id":"0.0-3.0-1.0","mouse_tracking_data":[{"x":1048,"y":536,"t":2,"event":"mousemove"},{"x":1037,"y":526,"t":12,"event":"mousemove"},{"x":1029,"y":517,"t":29,"event":"mousemove"},{"x":1024,"y":511,"t":46,"event":"mousemove"},{"x":1019,"y":506,"t":62,"event":"mousemove"},{"x":1015,"y":504,"t":80,"event":"mousemove"},{"x":1015,"y":502,"t":96,"event":"mousemove"},{"x":1014,"y":500,"t":113,"event":"mousemove"},{"x":1012,"y":499,"t":129,"event":"mousemove"},{"x":1010,"y":499,"t":188,"event":"mousemove"},{"x":1010,"y":497,"t":554,"event":"mousemove"},{"x":1010,"y":496,"t":581,"event":"mousemove"},{"x":1010,"y":494,"t":608,"event":"mousemove"},{"x":1010,"y":492,"t":618,"event":"mousemove"},{"x":1010,"y":490,"t":621,"event":"mousemove"},{"x":1010,"y":480,"t":636,"event":"mousemove"},{"x":1010,"y":473,"t":654,"event":"mousemove"},{"x":1010,"y":472,"t":670,"event":"mousemove"},{"x":1010,"y":468,"t":687,"event":"mousemove"},{"x":1010,"y":466,"t":703,"event":"mousemove"},{"x":1004,"y":466,"t":1222,"event":"mousemove"},{"x":994,"y":466,"t":1223,"event":"mousemove"},{"x":988,"y":466,"t":1223,"event":"mousemove"},{"x":979,"y":474,"t":1235,"event":"mousemove"},{"x":972,"y":476,"t":1236,"event":"mousemove"},{"x":943,"y":498,"t":1252,"event":"mousemove"},{"x":918,"y":515,"t":1270,"event":"mousemove"},{"x":881,"y":541,"t":1286,"event":"mousemove"},{"x":848,"y":560,"t":1303,"event":"mousemove"},{"x":823,"y":575,"t":1319,"event":"mousemove"},{"x":803,"y":588,"t":1336,"event":"mousemove"},{"x":786,"y":602,"t":1352,"event":"mousemove"},{"x":773,"y":615,"t":1369,"event":"mousemove"},{"x":760,"y":624,"t":1386,"event":"mousemove"},{"x":745,"y":639,"t":1402,"event":"mousemove"},{"x":735,"y":648,"t":1419,"event":"mousemove"},{"x":724,"y":656,"t":1435,"event":"mousemove"},{"x":714,"y":667,"t":1452,"event":"mousemove"},{"x":710,"y":670,"t":1469,"event":"mousemove"},{"x":709,"y":674,"t":1485,"event":"mousemove"},{"x":707,"y":675,"t":1503,"event":"mousemove"}],"mouse_tracking_targets":{},"correct":true},{"rt":2408,"stimulus":"<p>How confident are you about your choice ?</p>","slider_start":50,"response":73,"trial_type":"html-slider-response","trial_index":5,"time_elapsed":8164,"internal_node_id":"0.0-3.0-2.0"},{"rt":null,"stimulus":"\n        <div id='jspsych-image' style='position: relative; width: min(80vw, 80vh); height: min(80vw, 80vh);'>\n                \n                <div style='position: absolute; top: 40%; left: 30%; bottom: 40%; right: 30%;'><h1 style='font-size: 60px; color: green;'>Correct!</h1></div>\n                \n                <div class='jspsych-image' id='jspsych-image-0' data-choice='0' style='top: 0;     left: 0;'><img style=\"width: 100%; height: 100%;\" src='../static/human_exp_images/practice_img/00_2.png' class=''></img></div>\n                <div class='jspsych-image' id='jspsych-image-1' data-choice='1' style='top: 0;     right: 0;'><img style=\"width: 100%; height: 100%;\" src='../static/human_exp_images/practice_img/00_0.png' class=''></img></div>\n                <div class='jspsych-image' id='jspsych-image-2' data-choice='2' style='bottom: 0;  left: 0;'><img style=\"width: 100%; height: 100%;\" src='../static/human_exp_images/practice_img/00_3.png' class='correct-choice'></img></div>\n                <div class='jspsych-image' id='jspsych-image-3' data-choice='3' style='bottom: 0;  right: 0;'><img style=\"width: 100%; height: 100%;\" src='../static/human_exp_images/practice_img/00_1.png' class=''></img></div>\n\n        </div>","response":null,"trial_type":"html-keyboard-response","trial_index":6,"time_elapsed":9668,"internal_node_id":"0.0-3.0-3.0"},{"rt":null,"trial_type":"image-click","trial_index":7,"time_elapsed":10449,"internal_node_id":"0.0-3.0-0.1"},{"rt":1826,"response":0,"all_choices":["../static/human_exp_images/practice_img/01_3.png","../static/human_exp_images/practice_img/01_2.png","../static/human_exp_images/practice_img/01_1.png","../static/human_exp_images/practice_img/01_0.png"],"task":"response","correct_response":0,"shuffled_array":[3,2,1,0],"catch_trial":false,"trial_type":"image-click","trial_index":8,"time_elapsed":12279,"internal_node_id":"0.0-3.0-1.1","mouse_tracking_data":[{"x":1051,"y":477,"t":0,"event":"mousemove"},{"x":1032,"y":477,"t":11,"event":"mousemove"},{"x":1016,"y":477,"t":28,"event":"mousemove"},{"x":1004,"y":477,"t":45,"event":"mousemove"},{"x":996,"y":477,"t":61,"event":"mousemove"},{"x":985,"y":477,"t":78,"event":"mousemove"},{"x":982,"y":477,"t":94,"event":"mousemove"},{"x":973,"y":477,"t":111,"event":"mousemove"},{"x":967,"y":477,"t":127,"event":"mousemove"},{"x":963,"y":477,"t":145,"event":"mousemove"},{"x":960,"y":477,"t":162,"event":"mousemove"},{"x":965,"y":477,"t":261,"event":"mousemove"},{"x":978,"y":477,"t":262,"event":"mousemove"},{"x":1027,"y":474,"t":278,"event":"mousemove"},{"x":1110,"y":471,"t":295,"event":"mousemove"},{"x":1206,"y":471,"t":311,"event":"mousemove"},{"x":1280,"y":471,"t":328,"event":"mousemove"},{"x":1311,"y":471,"t":344,"event":"mousemove"},{"x":1330,"y":471,"t":361,"event":"mousemove"},{"x":1336,"y":471,"t":378,"event":"mousemove"},{"x":1338,"y":471,"t":394,"event":"mousemove"},{"x":1340,"y":471,"t":454,"event":"mousemove"},{"x":1342,"y":471,"t":522,"event":"mousemove"},{"x":1343,"y":471,"t":526,"event":"mousemove"},{"x":1345,"y":471,"t":534,"event":"mousemove"},{"x":1347,"y":471,"t":546,"event":"mousemove"},{"x":1348,"y":471,"t":548,"event":"mousemove"},{"x":1350,"y":471,"t":564,"event":"mousemove"},{"x":1350,"y":472,"t":1087,"event":"mousemove"},{"x":1350,"y":474,"t":1095,"event":"mousemove"},{"x":1350,"y":476,"t":1097,"event":"mousemove"},{"x":1340,"y":477,"t":1113,"event":"mousemove"},{"x":1308,"y":477,"t":1130,"event":"mousemove"},{"x":1226,"y":477,"t":1147,"event":"mousemove"},{"x":1152,"y":477,"t":1163,"event":"mousemove"},{"x":1090,"y":474,"t":1179,"event":"mousemove"},{"x":1034,"y":461,"t":1196,"event":"mousemove"},{"x":1005,"y":449,"t":1213,"event":"mousemove"},{"x":971,"y":441,"t":1230,"event":"mousemove"},{"x":954,"y":431,"t":1247,"event":"mousemove"},{"x":930,"y":425,"t":1263,"event":"mousemove"},{"x":910,"y":417,"t":1280,"event":"mousemove"},{"x":896,"y":411,"t":1296,"event":"mousemove"},{"x":879,"y":404,"t":1313,"event":"mousemove"},{"x":869,"y":399,"t":1329,"event":"mousemove"},{"x":860,"y":395,"t":1347,"event":"mousemove"},{"x":850,"y":387,"t":1363,"event":"mousemove"},{"x":841,"y":380,"t":1379,"event":"mousemove"},{"x":831,"y":370,"t":1396,"event":"mousemove"},{"x":822,"y":359,"t":1413,"event":"mousemove"},{"x":817,"y":351,"t":1431,"event":"mousemove"},{"x":810,"y":340,"t":1447,"event":"mousemove"},{"x":805,"y":334,"t":1464,"event":"mousemove"},{"x":797,"y":322,"t":1480,"event":"mousemove"},{"x":788,"y":313,"t":1497,"event":"mousemove"},{"x":785,"y":308,"t":1513,"event":"mousemove"},{"x":781,"y":305,"t":1530,"event":"mousemove"},{"x":780,"y":305,"t":1547,"event":"mousemove"},{"x":780,"y":303,"t":1563,"event":"mousemove"},{"x":780,"y":301,"t":1732,"event":"mousemove"}],"mouse_tracking_targets":{},"correct":true},{"rt":2161,"stimulus":"<p>How confident are you about your choice ?</p>","slider_start":50,"response":77,"trial_type":"html-slider-response","trial_index":9,"time_elapsed":14443,"internal_node_id":"0.0-3.0-2.1"},{"rt":null,"stimulus":"\n        <div id='jspsych-image' style='position: relative; width: min(80vw, 80vh); height: min(80vw, 80vh);'>\n                \n                <div style='position: absolute; top: 40%; left: 30%; bottom: 40%; right: 30%;'><h1 style='font-size: 60px; color: green;'>Correct!</h1></div>\n                \n                <div class='jspsych-image' id='jspsych-image-0' data-choice='0' style='top: 0;     left: 0;'><img style=\"width: 100%; height: 100%;\" src='../static/human_exp_images/practice_img/01_3.png' class='correct-choice'></img></div>\n                <div class='jspsych-image' id='jspsych-image-1' data-choice='1' style='top: 0;     right: 0;'><img style=\"width: 100%; height: 100%;\" src='../static/human_exp_images/practice_img/01_2.png' class=''></img></div>\n                <div class='jspsych-image' id='jspsych-image-2' data-choice='2' style='bottom: 0;  left: 0;'><img style=\"width: 100%; height: 100%;\" src='../static/human_exp_images/practice_img/01_1.png' class=''></img></div>\n                <div class='jspsych-image' id='jspsych-image-3' data-choice='3' style='bottom: 0;  right: 0;'><img style=\"width: 100%; height: 100%;\" src='../static/human_exp_images/practice_img/01_0.png' class=''></img></div>\n\n        </div>","response":null,"trial_type":"html-keyboard-response","trial_index":10,"time_elapsed":15945,"internal_node_id":"0.0-3.0-3.1"},{"rt":null,"trial_type":"image-click","trial_index":11,"time_elapsed":16805,"internal_node_id":"0.0-3.0-0.2"},{"rt":1398,"response":3,"all_choices":["../static/human_exp_images/practice_img/02_1.png","../static/human_exp_images/practice_img/02_2.png","../static/human_exp_images/practice_img/02_0.png","../static/human_exp_images/practice_img/02_3.png"],"task":"response","correct_response":3,"shuffled_array":[1,2,0,3],"catch_trial":false,"trial_type":"image-click","trial_index":12,"time_elapsed":18205,"internal_node_id":"0.0-3.0-1.2","mouse_tracking_data":[{"x":960,"y":537,"t":1,"event":"mousemove"},{"x":960,"y":517,"t":12,"event":"mousemove"},{"x":960,"y":503,"t":29,"event":"mousemove"},{"x":960,"y":495,"t":45,"event":"mousemove"},{"x":960,"y":488,"t":63,"event":"mousemove"},{"x":960,"y":486,"t":79,"event":"mousemove"},{"x":960,"y":485,"t":96,"event":"mousemove"},{"x":963,"y":485,"t":911,"event":"mousemove"},{"x":967,"y":485,"t":919,"event":"mousemove"},{"x":968,"y":485,"t":922,"event":"mousemove"},{"x":979,"y":488,"t":938,"event":"mousemove"},{"x":987,"y":497,"t":955,"event":"mousemove"},{"x":996,"y":509,"t":971,"event":"mousemove"},{"x":1005,"y":520,"t":988,"event":"mousemove"},{"x":1010,"y":528,"t":1004,"event":"mousemove"},{"x":1019,"y":540,"t":1021,"event":"mousemove"},{"x":1022,"y":549,"t":1039,"event":"mousemove"},{"x":1029,"y":559,"t":1055,"event":"mousemove"},{"x":1034,"y":566,"t":1072,"event":"mousemove"},{"x":1043,"y":578,"t":1088,"event":"mousemove"},{"x":1050,"y":588,"t":1105,"event":"mousemove"},{"x":1057,"y":597,"t":1121,"event":"mousemove"},{"x":1063,"y":607,"t":1138,"event":"mousemove"},{"x":1065,"y":612,"t":1155,"event":"mousemove"},{"x":1070,"y":619,"t":1172,"event":"mousemove"},{"x":1079,"y":628,"t":1188,"event":"mousemove"},{"x":1086,"y":636,"t":1204,"event":"mousemove"},{"x":1091,"y":643,"t":1221,"event":"mousemove"},{"x":1100,"y":654,"t":1239,"event":"mousemove"},{"x":1103,"y":657,"t":1255,"event":"mousemove"},{"x":1107,"y":659,"t":1272,"event":"mousemove"}],"mouse_tracking_targets":{},"correct":true},{"rt":3331,"stimulus":"<p>How confident are you about your choice ?</p>","slider_start":50,"response":74,"trial_type":"html-slider-response","trial_index":13,"time_elapsed":21538,"internal_node_id":"0.0-3.0-2.2"},{"rt":null,"stimulus":"\n        <div id='jspsych-image' style='position: relative; width: min(80vw, 80vh); height: min(80vw, 80vh);'>\n                \n                <div style='position: absolute; top: 40%; left: 30%; bottom: 40%; right: 30%;'><h1 style='font-size: 60px; color: green;'>Correct!</h1></div>\n                \n                <div class='jspsych-image' id='jspsych-image-0' data-choice='0' style='top: 0;     left: 0;'><img style=\"width: 100%; height: 100%;\" src='../static/human_exp_images/practice_img/02_1.png' class=''></img></div>\n                <div class='jspsych-image' id='jspsych-image-1' data-choice='1' style='top: 0;     right: 0;'><img style=\"width: 100%; height: 100%;\" src='../static/human_exp_images/practice_img/02_2.png' class=''></img></div>\n                <div class='jspsych-image' id='jspsych-image-2' data-choice='2' style='bottom: 0;  left: 0;'><img style=\"width: 100%; height: 100%;\" src='../static/human_exp_images/practice_img/02_0.png' class=''></img></div>\n                <div class='jspsych-image' id='jspsych-image-3' data-choice='3' style='bottom: 0;  right: 0;'><img style=\"width: 100%; height: 100%;\" src='../static/human_exp_images/practice_img/02_3.png' class='correct-choice'></img></div>\n\n        </div>","response":null,"trial_type":"html-keyboard-response","trial_index":14,"time_elapsed":23041,"internal_node_id":"0.0-3.0-3.2"},{"rt":1182,"stimulus":"<p style='font-size: 40px'>The practice session is over. The experiment begin now!</p> \n                <p>Please take pauses on only at the \"new rule\" pages.</p> \n                <p>Press any key to begin.</p>","response":" ","trial_type":"html-keyboard-response","trial_index":15,"time_elapsed":24224,"internal_node_id":"0.0-4.0"},{"rt":906,"stimulus":"<h1 style='font-size: 60px'>New Rule!</h1> <p>Press any key to begin.</p>","response":" ","trial_type":"html-keyboard-response","trial_index":16,"time_elapsed":25131,"internal_node_id":"0.0-5.0"},{"rt":null,"trial_type":"image-click","trial_index":17,"time_elapsed":25853,"internal_node_id":"0.0-6.0-0.0"},{"rt":974,"response":2,"all_choices":["../static/human_exp_images/task_size/00_1.png","../static/human_exp_images/task_size/00_2.png","../static/human_exp_images/task_size/00_3.png","../static/human_exp_images/task_size/00_0.png"],"task":"response","correct_response":2,"shuffled_array":[1,2,3,0],"catch_trial":false,"trial_type":"image-click","trial_index":18,"time_elapsed":26830,"internal_node_id":"0.0-6.0-1.0","mouse_tracking_data":[{"x":1049,"y":466,"t":1,"event":"mousemove"},{"x":1047,"y":466,"t":3,"event":"mousemove"},{"x":1040,"y":466,"t":14,"event":"mousemove"},{"x":1032,"y":466,"t":31,"event":"mousemove"},{"x":1027,"y":466,"t":47,"event":"mousemove"},{"x":1025,"y":466,"t":65,"event":"mousemove"},{"x":1018,"y":466,"t":80,"event":"mousemove"},{"x":1008,"y":466,"t":98,"event":"mousemove"},{"x":998,"y":466,"t":115,"event":"mousemove"},{"x":993,"y":467,"t":131,"event":"mousemove"},{"x":989,"y":467,"t":148,"event":"mousemove"},{"x":987,"y":467,"t":165,"event":"mousemove"},{"x":985,"y":467,"t":621,"event":"mousemove"},{"x":983,"y":469,"t":622,"event":"mousemove"},{"x":970,"y":483,"t":638,"event":"mousemove"},{"x":939,"y":525,"t":655,"event":"mousemove"},{"x":910,"y":562,"t":671,"event":"mousemove"},{"x":871,"y":614,"t":688,"event":"mousemove"},{"x":831,"y":657,"t":706,"event":"mousemove"},{"x":816,"y":678,"t":722,"event":"mousemove"},{"x":796,"y":698,"t":739,"event":"mousemove"},{"x":790,"y":704,"t":755,"event":"mousemove"},{"x":776,"y":717,"t":772,"event":"mousemove"},{"x":762,"y":727,"t":789,"event":"mousemove"},{"x":748,"y":737,"t":806,"event":"mousemove"},{"x":741,"y":744,"t":822,"event":"mousemove"},{"x":738,"y":746,"t":838,"event":"mousemove"},{"x":736,"y":746,"t":855,"event":"mousemove"}],"mouse_tracking_targets":{},"correct":true},{"rt":1725,"stimulus":"<p>How confident are you about your choice ?</p>","slider_start":50,"response":77,"trial_type":"html-slider-response","trial_index":19,"time_elapsed":28557,"internal_node_id":"0.0-6.0-2.0"},{"rt":null,"stimulus":"\n        <div id='jspsych-image' style='position: relative; width: min(80vw, 80vh); height: min(80vw, 80vh);'>\n                \n                <div style='position: absolute; top: 40%; left: 30%; bottom: 40%; right: 30%;'><h1 style='font-size: 60px; color: green;'>Correct!</h1></div>\n                \n                <div class='jspsych-image' id='jspsych-image-0' data-choice='0' style='top: 0;     left: 0;'><img style=\"width: 100%; height: 100%;\" src='../static/human_exp_images/task_size/00_1.png' class=''></img></div>\n                <div class='jspsych-image' id='jspsych-image-1' data-choice='1' style='top: 0;     right: 0;'><img style=\"width: 100%; height: 100%;\" src='../static/human_exp_images/task_size/00_2.png' class=''></img></div>\n                <div class='jspsych-image' id='jspsych-image-2' data-choice='2' style='bottom: 0;  left: 0;'><img style=\"width: 100%; height: 100%;\" src='../static/human_exp_images/task_size/00_3.png' class='correct-choice'></img></div>\n                <div class='jspsych-image' id='jspsych-image-3' data-choice='3' style='bottom: 0;  right: 0;'><img style=\"width: 100%; height: 100%;\" src='../static/human_exp_images/task_size/00_0.png' class=''></img></div>\n\n        </div>","response":null,"trial_type":"html-keyboard-response","trial_index":20,"time_elapsed":30060,"internal_node_id":"0.0-6.0-3.0"},{"rt":null,"trial_type":"image-click","trial_index":21,"time_elapsed":30647,"internal_node_id":"0.0-6.0-0.1"},{"rt":967,"response":0,"all_choices":["../static/human_exp_images/task_size/01_3.png","../static/human_exp_images/task_size/01_0.png","../static/human_exp_images/task_size/01_2.png","../static/human_exp_images/task_size/01_1.png"],"task":"response","correct_response":0,"shuffled_array":[3,0,2,1],"catch_trial":false,"trial_type":"image-click","trial_index":22,"time_elapsed":31618,"internal_node_id":"0.0-6.0-1.1","mouse_tracking_data":[{"x":961,"y":536,"t":1,"event":"mousemove"},{"x":964,"y":494,"t":14,"event":"mousemove"},{"x":964,"y":464,"t":30,"event":"mousemove"},{"x":964,"y":447,"t":47,"event":"mousemove"},{"x":964,"y":437,"t":63,"event":"mousemove"},{"x":964,"y":432,"t":81,"event":"mousemove"},{"x":959,"y":432,"t":527,"event":"mousemove"},{"x":958,"y":432,"t":531,"event":"mousemove"},{"x":951,"y":432,"t":535,"event":"mousemove"},{"x":949,"y":432,"t":536,"event":"mousemove"},{"x":937,"y":430,"t":552,"event":"mousemove"},{"x":918,"y":420,"t":570,"event":"mousemove"},{"x":899,"y":404,"t":586,"event":"mousemove"},{"x":884,"y":384,"t":603,"event":"mousemove"},{"x":874,"y":369,"t":619,"event":"mousemove"},{"x":861,"y":352,"t":637,"event":"mousemove"},{"x":852,"y":343,"t":653,"event":"mousemove"},{"x":838,"y":329,"t":671,"event":"mousemove"},{"x":826,"y":319,"t":687,"event":"mousemove"},{"x":814,"y":308,"t":702,"event":"mousemove"},{"x":805,"y":300,"t":719,"event":"mousemove"},{"x":798,"y":293,"t":736,"event":"mousemove"},{"x":795,"y":288,"t":753,"event":"mousemove"},{"x":792,"y":283,"t":769,"event":"mousemove"},{"x":788,"y":279,"t":786,"event":"mousemove"},{"x":788,"y":278,"t":803,"event":"mousemove"},{"x":787,"y":276,"t":820,"event":"mousemove"},{"x":787,"y":274,"t":912,"event":"mousemove"}],"mouse_tracking_targets":{},"correct":true},{"rt":1574,"stimulus":"<p>How confident are you about your choice ?</p>","slider_start":50,"response":78,"trial_type":"html-slider-response","trial_index":23,"time_elapsed":33193,"internal_node_id":"0.0-6.0-2.1"},{"rt":null,"stimulus":"\n        <div id='jspsych-image' style='position: relative; width: min(80vw, 80vh); height: min(80vw, 80vh);'>\n                \n                <div style='position: absolute; top: 40%; left: 30%; bottom: 40%; right: 30%;'><h1 style='font-size: 60px; color: green;'>Correct!</h1></div>\n                \n                <div class='jspsych-image' id='jspsych-image-0' data-choice='0' style='top: 0;     left: 0;'><img style=\"width: 100%; height: 100%;\" src='../static/human_exp_images/task_size/01_3.png' class='correct-choice'></img></div>\n                <div class='jspsych-image' id='jspsych-image-1' data-choice='1' style='top: 0;     right: 0;'><img style=\"width: 100%; height: 100%;\" src='../static/human_exp_images/task_size/01_0.png' class=''></img></div>\n                <div class='jspsych-image' id='jspsych-image-2' data-choice='2' style='bottom: 0;  left: 0;'><img style=\"width: 100%; height: 100%;\" src='../static/human_exp_images/task_size/01_2.png' class=''></img></div>\n                <div class='jspsych-image' id='jspsych-image-3' data-choice='3' style='bottom: 0;  right: 0;'><img style=\"width: 100%; height: 100%;\" src='../static/human_exp_images/task_size/01_1.png' class=''></img></div>\n\n        </div>","response":null,"trial_type":"html-keyboard-response","trial_index":24,"time_elapsed":34697,"internal_node_id":"0.0-6.0-3.1"},{"rt":null,"trial_type":"image-click","trial_index":25,"time_elapsed":35580,"internal_node_id":"0.0-6.0-0.2"},{"rt":960,"response":1,"all_choices":["../static/human_exp_images/task_size/02_1.png","../static/human_exp_images/task_size/02_3.png","../static/human_exp_images/task_size/02_2.png","../static/human_exp_images/task_size/02_0.png"],"task":"response","correct_response":1,"shuffled_array":[1,3,2,0],"catch_trial":false,"trial_type":"image-click","trial_index":26,"time_elapsed":36542,"internal_node_id":"0.0-6.0-1.2","mouse_tracking_data":[{"x":978,"y":538,"t":1,"event":"mousemove"},{"x":974,"y":523,"t":14,"event":"mousemove"},{"x":970,"y":516,"t":30,"event":"mousemove"},{"x":969,"y":511,"t":48,"event":"mousemove"},{"x":969,"y":508,"t":64,"event":"mousemove"},{"x":967,"y":504,"t":81,"event":"mousemove"},{"x":967,"y":503,"t":98,"event":"mousemove"},{"x":967,"y":501,"t":115,"event":"mousemove"},{"x":967,"y":499,"t":133,"event":"mousemove"},{"x":965,"y":499,"t":148,"event":"mousemove"},{"x":965,"y":498,"t":164,"event":"mousemove"},{"x":965,"y":496,"t":182,"event":"mousemove"},{"x":965,"y":494,"t":216,"event":"mousemove"},{"x":964,"y":494,"t":618,"event":"mousemove"},{"x":964,"y":487,"t":640,"event":"mousemove"},{"x":964,"y":486,"t":643,"event":"mousemove"},{"x":964,"y":460,"t":659,"event":"mousemove"},{"x":981,"y":430,"t":676,"event":"mousemove"},{"x":1028,"y":382,"t":692,"event":"mousemove"},{"x":1065,"y":348,"t":709,"event":"mousemove"},{"x":1097,"y":319,"t":725,"event":"mousemove"},{"x":1112,"y":304,"t":743,"event":"mousemove"},{"x":1128,"y":288,"t":758,"event":"mousemove"},{"x":1137,"y":278,"t":775,"event":"mousemove"},{"x":1141,"y":273,"t":792,"event":"mousemove"},{"x":1146,"y":266,"t":809,"event":"mousemove"},{"x":1148,"y":263,"t":826,"event":"mousemove"}],"mouse_tracking_targets":{},"correct":true},{"rt":2215,"stimulus":"<p>How confident are you about your choice ?</p>","slider_start":50,"response":72,"trial_type":"html-slider-response","trial_index":27,"time_elapsed":38759,"internal_node_id":"0.0-6.0-2.2"},{"rt":null,"stimulus":"\n        <div id='jspsych-image' style='position: relative; width: min(80vw, 80vh); height: min(80vw, 80vh);'>\n                \n                <div style='position: absolute; top: 40%; left: 30%; bottom: 40%; right: 30%;'><h1 style='font-size: 60px; color: green;'>Correct!</h1></div>\n                \n                <div class='jspsych-image' id='jspsych-image-0' data-choice='0' style='top: 0;     left: 0;'><img style=\"width: 100%; height: 100%;\" src='../static/human_exp_images/task_size/02_1.png' class=''></img></div>\n                <div class='jspsych-image' id='jspsych-image-1' data-choice='1' style='top: 0;     right: 0;'><img style=\"width: 100%; height: 100%;\" src='../static/human_exp_images/task_size/02_3.png' class='correct-choice'></img></div>\n                <div class='jspsych-image' id='jspsych-image-2' data-choice='2' style='bottom: 0;  left: 0;'><img style=\"width: 100%; height: 100%;\" src='../static/human_exp_images/task_size/02_2.png' class=''></img></div>\n                <div class='jspsych-image' id='jspsych-image-3' data-choice='3' style='bottom: 0;  right: 0;'><img style=\"width: 100%; height: 100%;\" src='../static/human_exp_images/task_size/02_0.png' class=''></img></div>\n\n        </div>","response":null,"trial_type":"html-keyboard-response","trial_index":28,"time_elapsed":40261,"internal_node_id":"0.0-6.0-3.2"},{"rt":3952,"stimulus":"<p>You responded correctly on 100% of the trials.</p>\n    <p>Your average response time was 1290ms.</p>\n    <p>Press any key to complete the experiment. Thank you!</p>","response":" ","trial_type":"html-keyboard-response","trial_index":29,"time_elapsed":44214,"internal_node_id":"0.0-7.0","interactions":"[]"}]