[{"rt":null,"trial_type":"image-click","trial_index":18,"time_elapsed":24590,"internal_node_id":"0.0-7.0-0.0"},{"rt":1622,"response":1,"all_choices":["../static/human_exp_images/task_size/00_0.png","../static/human_exp_images/task_size/00_3.png","../static/human_exp_images/task_size/00_1.png","../static/human_exp_images/task_size/00_2.png"],"task":"response","correct_response":1,"shuffled_array":[0,3,1,2],"catch_trial":false,"trial_type":"image-click","trial_index":19,"time_elapsed":26215,"internal_node_id":"0.0-7.0-1.0","mouse_tracking_data":[{"x":1036,"y":455,"t":1,"event":"mousemove"},{"x":1023,"y":457,"t":14,"event":"mousemove"},{"x":1011,"y":460,"t":31,"event":"mousemove"},{"x":997,"y":464,"t":48,"event":"mousemove"},{"x":983,"y":469,"t":64,"event":"mousemove"},{"x":970,"y":474,"t":81,"event":"mousemove"},{"x":961,"y":479,"t":97,"event":"mousemove"},{"x":954,"y":482,"t":114,"event":"mousemove"},{"x":953,"y":484,"t":130,"event":"mousemove"},{"x":954,"y":484,"t":1194,"event":"mousemove"},{"x":964,"y":476,"t":1210,"event":"mousemove"},{"x":974,"y":466,"t":1228,"event":"mousemove"},{"x":987,"y":452,"t":1243,"event":"mousemove"},{"x":1004,"y":431,"t":1260,"event":"mousemove"},{"x":1030,"y":407,"t":1277,"event":"mousemove"},{"x":1053,"y":383,"t":1294,"event":"mousemove"},{"x":1068,"y":366,"t":1310,"event":"mousemove"},{"x":1087,"y":347,"t":1327,"event":"mousemove"},{"x":1103,"y":329,"t":1343,"event":"mousemove"},{"x":1115,"y":316,"t":1361,"event":"mousemove"},{"x":1126,"y":301,"t":1378,"event":"mousemove"},{"x":1131,"y":293,"t":1394,"event":"mousemove"},{"x":1135,"y":289,"t":1411,"event":"mousemove"},{"x":1138,"y":286,"t":1428,"event":"mousemove"},{"x":1138,"y":284,"t":1445,"event":"mousemove"},{"x":1140,"y":284,"t":1461,"event":"mousemove"},{"x":1141,"y":284,"t":1478,"event":"mousemove"}],"mouse_tracking_targets":{},"correct":true},{"rt":1538,"stimulus":"<p>How confident are you about your choice ?</p>","slider_start":50,"response":100,"trial_type":"html-slider-response","trial_index":20,"time_elapsed":27754,"internal_node_id":"0.0-7.0-2.0"},{"rt":null,"stimulus":"\n        <div id='jspsych-image' style='position: relative; width: min(80vw, 80vh); height: min(80vw, 80vh);'>\n                \n                <div style='position: absolute; top: 40%; left: 30%; bottom: 40%; right: 30%;'><h1 style='font-size: 60px; color: green;'>Correct!</h1></div>\n                \n                <div class='jspsych-image' id='jspsych-image-0' data-choice='0' style='top: 0;     left: 0;'><img style=\"width: 100%; height: 100%;\" src='../static/human_exp_images/task_size/00_0.png' class=''></img></div>\n                <div class='jspsych-image' id='jspsych-image-1' data-choice='1' style='top: 0;     right: 0;'><img style=\"width: 100%; height: 100%;\" src='../static/human_exp_images/task_size/00_3.png' class='correct-choice'></img></div>\n                <div class='jspsych-image' id='jspsych-image-2' data-choice='2' style='bottom: 0;  left: 0;'><img style=\"width: 100%; height: 100%;\" src='../static/human_exp_images/task_size/00_1.png' class=''></img></div>\n                <div class='jspsych-image' id='jspsych-image-3' data-choice='3' style='bottom: 0;  right: 0;'><img style=\"width: 100%; height: 100%;\" src='../static/human_exp_images/task_size/00_2.png' class=''></img></div>\n\n        </div>","response":null,"trial_type":"html-keyboard-response","trial_index":21,"time_elapsed":29258,"internal_node_id":"0.0-7.0-3.0"},{"rt":null,"trial_type":"image-click","trial_index":22,"time_elapsed":29711,"internal_node_id":"0.0-7.0-0.1"},{"rt":805,"response":3,"all_choices":["../static/human_exp_images/task_size/01_0.png","../static/human_exp_images/task_size/01_1.png","../static/human_exp_images/task_size/01_2.png","../static/human_exp_images/task_size/01_3.png"],"task":"response","correct_response":3,"shuffled_array":[0,1,2,3],"catch_trial":false,"trial_type":"image-click","trial_index":23,"time_elapsed":30518,"internal_node_id":"0.0-7.0-1.1","mouse_tracking_data":[{"x":1049,"y":480,"t":1,"event":"mousemove"},{"x":1041,"y":480,"t":3,"event":"mousemove"},{"x":1023,"y":480,"t":15,"event":"mousemove"},{"x":1004,"y":480,"t":32,"event":"mousemove"},{"x":993,"y":480,"t":47,"event":"mousemove"},{"x":983,"y":480,"t":65,"event":"mousemove"},{"x":978,"y":480,"t":81,"event":"mousemove"},{"x":980,"y":480,"t":189,"event":"mousemove"},{"x":987,"y":480,"t":198,"event":"mousemove"},{"x":995,"y":481,"t":215,"event":"mousemove"},{"x":1004,"y":483,"t":232,"event":"mousemove"},{"x":1009,"y":483,"t":248,"event":"mousemove"},{"x":1017,"y":483,"t":265,"event":"mousemove"},{"x":1021,"y":483,"t":281,"event":"mousemove"},{"x":1026,"y":483,"t":298,"event":"mousemove"},{"x":1034,"y":483,"t":315,"event":"mousemove"},{"x":1039,"y":481,"t":331,"event":"mousemove"},{"x":1046,"y":476,"t":348,"event":"mousemove"},{"x":1053,"y":468,"t":365,"event":"mousemove"},{"x":1062,"y":459,"t":382,"event":"mousemove"},{"x":1065,"y":454,"t":399,"event":"mousemove"},{"x":1068,"y":449,"t":415,"event":"mousemove"},{"x":1070,"y":447,"t":432,"event":"mousemove"},{"x":1072,"y":446,"t":447,"event":"mousemove"},{"x":1074,"y":446,"t":550,"event":"mousemove"},{"x":1077,"y":446,"t":558,"event":"mousemove"},{"x":1080,"y":456,"t":568,"event":"mousemove"},{"x":1082,"y":459,"t":571,"event":"mousemove"},{"x":1089,"y":473,"t":576,"event":"mousemove"},{"x":1094,"y":481,"t":580,"event":"mousemove"},{"x":1107,"y":505,"t":585,"event":"mousemove"},{"x":1136,"y":557,"t":601,"event":"mousemove"},{"x":1171,"y":617,"t":619,"event":"mousemove"},{"x":1191,"y":658,"t":635,"event":"mousemove"},{"x":1200,"y":676,"t":652,"event":"mousemove"},{"x":1204,"y":685,"t":668,"event":"mousemove"},{"x":1204,"y":686,"t":685,"event":"mousemove"},{"x":1206,"y":686,"t":702,"event":"mousemove"},{"x":1207,"y":686,"t":719,"event":"mousemove"}],"mouse_tracking_targets":{},"correct":true},{"rt":1156,"stimulus":"<p>How confident are you about your choice ?</p>","slider_start":50,"response":100,"trial_type":"html-slider-response","trial_index":24,"time_elapsed":31676,"internal_node_id":"0.0-7.0-2.1"},{"rt":null,"stimulus":"\n        <div id='jspsych-image' style='position: relative; width: min(80vw, 80vh); height: min(80vw, 80vh);'>\n                \n                <div style='position: absolute; top: 40%; left: 30%; bottom: 40%; right: 30%;'><h1 style='font-size: 60px; color: green;'>Correct!</h1></div>\n                \n                <div class='jspsych-image' id='jspsych-image-0' data-choice='0' style='top: 0;     left: 0;'><img style=\"width: 100%; height: 100%;\" src='../static/human_exp_images/task_size/01_0.png' class=''></img></div>\n                <div class='jspsych-image' id='jspsych-image-1' data-choice='1' style='top: 0;     right: 0;'><img style=\"width: 100%; height: 100%;\" src='../static/human_exp_images/task_size/01_1.png' class=''></img></div>\n                <div class='jspsych-image' id='jspsych-image-2' data-choice='2' style='bottom: 0;  left: 0;'><img style=\"width: 100%; height: 100%;\" src='../static/human_exp_images/task_size/01_2.png' class=''></img></div>\n                <div class='jspsych-image' id='jspsych-image-3' data-choice='3' style='bottom: 0;  right: 0;'><img style=\"width: 100%; height: 100%;\" src='../static/human_exp_images/task_size/01_3.png' class='correct-choice'></img></div>\n\n        </div>","response":null,"trial_type":"html-keyboard-response","trial_index":25,"time_elapsed":33179,"internal_node_id":"0.0-7.0-3.1"},{"rt":null,"trial_type":"image-click","trial_index":26,"time_elapsed":33966,"internal_node_id":"0.0-7.0-0.2"},{"rt":811,"response":0,"all_choices":["../static/human_exp_images/task_size/02_3.png","../static/human_exp_images/task_size/02_2.png","../static/human_exp_images/task_size/02_1.png","../static/human_exp_images/task_size/02_0.png"],"task":"response","correct_response":0,"shuffled_array":[3,2,1,0],"catch_trial":false,"trial_type":"image-click","trial_index":27,"time_elapsed":34779,"internal_node_id":"0.0-7.0-1.2","mouse_tracking_data":[{"x":1031,"y":474,"t":2,"event":"mousemove"},{"x":1020,"y":474,"t":13,"event":"mousemove"},{"x":1013,"y":474,"t":31,"event":"mousemove"},{"x":1012,"y":474,"t":50,"event":"mousemove"},{"x":1010,"y":474,"t":487,"event":"mousemove"},{"x":1007,"y":474,"t":496,"event":"mousemove"},{"x":1000,"y":469,"t":514,"event":"mousemove"},{"x":982,"y":451,"t":531,"event":"mousemove"},{"x":952,"y":421,"t":547,"event":"mousemove"},{"x":921,"y":395,"t":563,"event":"mousemove"},{"x":876,"y":350,"t":580,"event":"mousemove"},{"x":843,"y":317,"t":598,"event":"mousemove"},{"x":827,"y":300,"t":614,"event":"mousemove"},{"x":811,"y":287,"t":631,"event":"mousemove"},{"x":802,"y":276,"t":648,"event":"mousemove"},{"x":793,"y":267,"t":664,"event":"mousemove"},{"x":786,"y":260,"t":681,"event":"mousemove"},{"x":783,"y":255,"t":697,"event":"mousemove"},{"x":779,"y":251,"t":714,"event":"mousemove"}],"mouse_tracking_targets":{},"correct":true},{"rt":3091,"stimulus":"<p>How confident are you about your choice ?</p>","slider_start":50,"response":100,"trial_type":"html-slider-response","trial_index":28,"time_elapsed":37873,"internal_node_id":"0.0-7.0-2.2"},{"rt":null,"stimulus":"\n        <div id='jspsych-image' style='position: relative; width: min(80vw, 80vh); height: min(80vw, 80vh);'>\n                \n                <div style='position: absolute; top: 40%; left: 30%; bottom: 40%; right: 30%;'><h1 style='font-size: 60px; color: green;'>Correct!</h1></div>\n                \n                <div class='jspsych-image' id='jspsych-image-0' data-choice='0' style='top: 0;     left: 0;'><img style=\"width: 100%; height: 100%;\" src='../static/human_exp_images/task_size/02_3.png' class='correct-choice'></img></div>\n                <div class='jspsych-image' id='jspsych-image-1' data-choice='1' style='top: 0;     right: 0;'><img style=\"width: 100%; height: 100%;\" src='../static/human_exp_images/task_size/02_2.png' class=''></img></div>\n                <div class='jspsych-image' id='jspsych-image-2' data-choice='2' style='bottom: 0;  left: 0;'><img style=\"width: 100%; height: 100%;\" src='../static/human_exp_images/task_size/02_1.png' class=''></img></div>\n                <div class='jspsych-image' id='jspsych-image-3' data-choice='3' style='bottom: 0;  right: 0;'><img style=\"width: 100%; height: 100%;\" src='../static/human_exp_images/task_size/02_0.png' class=''></img></div>\n\n        </div>","response":null,"trial_type":"html-keyboard-response","trial_index":29,"time_elapsed":39377,"internal_node_id":"0.0-7.0-3.2"},{"rt":null,"trial_type":"image-click","trial_index":30,"time_elapsed":39815,"internal_node_id":"0.0-7.0-0.3"},{"rt":1210,"response":2,"all_choices":["../static/human_exp_images/task_size/03_0.png","../static/human_exp_images/task_size/03_2.png","../static/human_exp_images/task_size/03_3.png","../static/human_exp_images/task_size/03_1.png"],"task":"response","correct_response":2,"shuffled_array":[0,2,3,1],"catch_trial":false,"trial_type":"image-click","trial_index":31,"time_elapsed":41026,"internal_node_id":"0.0-7.0-1.3","mouse_tracking_data":[{"x":1045,"y":445,"t":2,"event":"mousemove"},{"x":1030,"y":445,"t":15,"event":"mousemove"},{"x":1010,"y":445,"t":31,"event":"mousemove"},{"x":994,"y":445,"t":48,"event":"mousemove"},{"x":985,"y":446,"t":65,"event":"mousemove"},{"x":980,"y":448,"t":81,"event":"mousemove"},{"x":978,"y":448,"t":97,"event":"mousemove"},{"x":980,"y":448,"t":373,"event":"mousemove"},{"x":982,"y":448,"t":392,"event":"mousemove"},{"x":983,"y":448,"t":402,"event":"mousemove"},{"x":985,"y":448,"t":409,"event":"mousemove"},{"x":988,"y":448,"t":419,"event":"mousemove"},{"x":994,"y":450,"t":435,"event":"mousemove"},{"x":1000,"y":453,"t":452,"event":"mousemove"},{"x":1007,"y":457,"t":469,"event":"mousemove"},{"x":1012,"y":460,"t":486,"event":"mousemove"},{"x":1016,"y":462,"t":502,"event":"mousemove"},{"x":1019,"y":464,"t":519,"event":"mousemove"},{"x":1021,"y":464,"t":537,"event":"mousemove"},{"x":1021,"y":465,"t":601,"event":"mousemove"},{"x":1021,"y":467,"t":718,"event":"mousemove"},{"x":1021,"y":470,"t":734,"event":"mousemove"},{"x":1011,"y":477,"t":751,"event":"mousemove"},{"x":985,"y":488,"t":768,"event":"mousemove"},{"x":956,"y":505,"t":784,"event":"mousemove"},{"x":934,"y":522,"t":800,"event":"mousemove"},{"x":917,"y":533,"t":818,"event":"mousemove"},{"x":907,"y":540,"t":834,"event":"mousemove"},{"x":898,"y":548,"t":851,"event":"mousemove"},{"x":884,"y":557,"t":868,"event":"mousemove"},{"x":874,"y":564,"t":884,"event":"mousemove"},{"x":864,"y":572,"t":901,"event":"mousemove"},{"x":857,"y":579,"t":918,"event":"mousemove"},{"x":850,"y":584,"t":935,"event":"mousemove"},{"x":845,"y":590,"t":951,"event":"mousemove"},{"x":841,"y":593,"t":968,"event":"mousemove"},{"x":831,"y":600,"t":984,"event":"mousemove"},{"x":823,"y":607,"t":1001,"event":"mousemove"},{"x":803,"y":623,"t":1018,"event":"mousemove"},{"x":794,"y":631,"t":1035,"event":"mousemove"},{"x":781,"y":642,"t":1051,"event":"mousemove"},{"x":772,"y":650,"t":1067,"event":"mousemove"},{"x":769,"y":652,"t":1085,"event":"mousemove"},{"x":767,"y":652,"t":1101,"event":"mousemove"},{"x":767,"y":654,"t":1118,"event":"mousemove"}],"mouse_tracking_targets":{},"correct":true},{"rt":1527,"stimulus":"<p>How confident are you about your choice ?</p>","slider_start":50,"response":100,"trial_type":"html-slider-response","trial_index":32,"time_elapsed":42556,"internal_node_id":"0.0-7.0-2.3"},{"rt":null,"stimulus":"\n        <div id='jspsych-image' style='position: relative; width: min(80vw, 80vh); height: min(80vw, 80vh);'>\n                \n                <div style='position: absolute; top: 40%; left: 30%; bottom: 40%; right: 30%;'><h1 style='font-size: 60px; color: green;'>Correct!</h1></div>\n                \n                <div class='jspsych-image' id='jspsych-image-0' data-choice='0' style='top: 0;     left: 0;'><img style=\"width: 100%; height: 100%;\" src='../static/human_exp_images/task_size/03_0.png' class=''></img></div>\n                <div class='jspsych-image' id='jspsych-image-1' data-choice='1' style='top: 0;     right: 0;'><img style=\"width: 100%; height: 100%;\" src='../static/human_exp_images/task_size/03_2.png' class=''></img></div>\n                <div class='jspsych-image' id='jspsych-image-2' data-choice='2' style='bottom: 0;  left: 0;'><img style=\"width: 100%; height: 100%;\" src='../static/human_exp_images/task_size/03_3.png' class='correct-choice'></img></div>\n                <div class='jspsych-image' id='jspsych-image-3' data-choice='3' style='bottom: 0;  right: 0;'><img style=\"width: 100%; height: 100%;\" src='../static/human_exp_images/task_size/03_1.png' class=''></img></div>\n\n        </div>","response":null,"trial_type":"html-keyboard-response","trial_index":33,"time_elapsed":44059,"internal_node_id":"0.0-7.0-3.3"},{"rt":null,"trial_type":"image-click","trial_index":34,"time_elapsed":44578,"internal_node_id":"0.0-7.0-0.4"},{"rt":1270,"response":0,"all_choices":["../static/human_exp_images/task_size/04_3.png","../static/human_exp_images/task_size/04_1.png","../static/human_exp_images/task_size/04_0.png","../static/human_exp_images/task_size/04_2.png"],"task":"response","correct_response":0,"shuffled_array":[3,1,0,2],"catch_trial":false,"trial_type":"image-click","trial_index":35,"time_elapsed":45851,"internal_node_id":"0.0-7.0-1.4","mouse_tracking_data":[{"x":1048,"y":469,"t":1,"event":"mousemove"},{"x":1000,"y":469,"t":14,"event":"mousemove"},{"x":951,"y":469,"t":30,"event":"mousemove"},{"x":915,"y":469,"t":48,"event":"mousemove"},{"x":894,"y":469,"t":64,"event":"mousemove"},{"x":880,"y":469,"t":81,"event":"mousemove"},{"x":879,"y":469,"t":98,"event":"mousemove"},{"x":879,"y":467,"t":114,"event":"mousemove"},{"x":880,"y":467,"t":231,"event":"mousemove"},{"x":884,"y":467,"t":232,"event":"mousemove"},{"x":895,"y":467,"t":240,"event":"mousemove"},{"x":932,"y":467,"t":256,"event":"mousemove"},{"x":1006,"y":467,"t":273,"event":"mousemove"},{"x":1096,"y":467,"t":290,"event":"mousemove"},{"x":1140,"y":467,"t":306,"event":"mousemove"},{"x":1153,"y":467,"t":322,"event":"mousemove"},{"x":1154,"y":467,"t":339,"event":"mousemove"},{"x":1156,"y":467,"t":358,"event":"mousemove"},{"x":1156,"y":465,"t":586,"event":"mousemove"},{"x":1156,"y":463,"t":615,"event":"mousemove"},{"x":1156,"y":462,"t":623,"event":"mousemove"},{"x":1156,"y":460,"t":631,"event":"mousemove"},{"x":1144,"y":457,"t":648,"event":"mousemove"},{"x":1123,"y":448,"t":666,"event":"mousemove"},{"x":1098,"y":435,"t":681,"event":"mousemove"},{"x":1080,"y":425,"t":698,"event":"mousemove"},{"x":1046,"y":399,"t":714,"event":"mousemove"},{"x":1018,"y":380,"t":732,"event":"mousemove"},{"x":1002,"y":369,"t":748,"event":"mousemove"},{"x":974,"y":353,"t":765,"event":"mousemove"},{"x":947,"y":337,"t":782,"event":"mousemove"},{"x":928,"y":325,"t":799,"event":"mousemove"},{"x":917,"y":321,"t":816,"event":"mousemove"},{"x":910,"y":318,"t":832,"event":"mousemove"},{"x":900,"y":312,"t":849,"event":"mousemove"},{"x":898,"y":309,"t":865,"event":"mousemove"},{"x":896,"y":307,"t":882,"event":"mousemove"},{"x":891,"y":306,"t":899,"event":"mousemove"},{"x":884,"y":301,"t":915,"event":"mousemove"},{"x":878,"y":297,"t":931,"event":"mousemove"},{"x":874,"y":295,"t":949,"event":"mousemove"},{"x":874,"y":294,"t":988,"event":"mousemove"},{"x":873,"y":294,"t":997,"event":"mousemove"},{"x":871,"y":294,"t":1016,"event":"mousemove"},{"x":869,"y":292,"t":1026,"event":"mousemove"},{"x":866,"y":290,"t":1034,"event":"mousemove"},{"x":866,"y":289,"t":1035,"event":"mousemove"},{"x":861,"y":287,"t":1043,"event":"mousemove"},{"x":855,"y":283,"t":1055,"event":"mousemove"},{"x":854,"y":283,"t":1058,"event":"mousemove"},{"x":850,"y":282,"t":1064,"event":"mousemove"},{"x":849,"y":282,"t":1082,"event":"mousemove"},{"x":839,"y":276,"t":1084,"event":"mousemove"},{"x":834,"y":274,"t":1100,"event":"mousemove"},{"x":832,"y":274,"t":1117,"event":"mousemove"},{"x":829,"y":274,"t":1134,"event":"mousemove"},{"x":827,"y":274,"t":1150,"event":"mousemove"},{"x":824,"y":272,"t":1168,"event":"mousemove"},{"x":819,"y":270,"t":1183,"event":"mousemove"},{"x":813,"y":269,"t":1201,"event":"mousemove"},{"x":808,"y":269,"t":1218,"event":"mousemove"},{"x":807,"y":267,"t":1233,"event":"mousemove"},{"x":807,"y":265,"t":1251,"event":"mousemove"}],"mouse_tracking_targets":{},"correct":true},{"rt":964,"stimulus":"<p>How confident are you about your choice ?</p>","slider_start":50,"response":95,"trial_type":"html-slider-response","trial_index":36,"time_elapsed":46816,"internal_node_id":"0.0-7.0-2.4"},{"rt":null,"stimulus":"\n        <div id='jspsych-image' style='position: relative; width: min(80vw, 80vh); height: min(80vw, 80vh);'>\n                \n                <div style='position: absolute; top: 40%; left: 30%; bottom: 40%; right: 30%;'><h1 style='font-size: 60px; color: green;'>Correct!</h1></div>\n                \n                <div class='jspsych-image' id='jspsych-image-0' data-choice='0' style='top: 0;     left: 0;'><img style=\"width: 100%; height: 100%;\" src='../static/human_exp_images/task_size/04_3.png' class='correct-choice'></img></div>\n                <div class='jspsych-image' id='jspsych-image-1' data-choice='1' style='top: 0;     right: 0;'><img style=\"width: 100%; height: 100%;\" src='../static/human_exp_images/task_size/04_1.png' class=''></img></div>\n                <div class='jspsych-image' id='jspsych-image-2' data-choice='2' style='bottom: 0;  left: 0;'><img style=\"width: 100%; height: 100%;\" src='../static/human_exp_images/task_size/04_0.png' class=''></img></div>\n                <div class='jspsych-image' id='jspsych-image-3' data-choice='3' style='bottom: 0;  right: 0;'><img style=\"width: 100%; height: 100%;\" src='../static/human_exp_images/task_size/04_2.png' class=''></img></div>\n\n        </div>","response":null,"trial_type":"html-keyboard-response","trial_index":37,"time_elapsed":48319,"internal_node_id":"0.0-7.0-3.4"},{"rt":null,"trial_type":"image-click","trial_index":38,"time_elapsed":48703,"internal_node_id":"0.0-7.0-0.5"},{"rt":1160,"response":3,"all_choices":["../static/human_exp_images/task_size/05_1.png","../static/human_exp_images/task_size/05_2.png","../static/human_exp_images/task_size/05_0.png","../static/human_exp_images/task_size/05_3.png"],"task":"response","correct_response":3,"shuffled_array":[1,2,0,3],"catch_trial":false,"trial_type":"image-click","trial_index":39,"time_elapsed":49866,"internal_node_id":"0.0-7.0-1.5","mouse_tracking_data":[{"x":1039,"y":466,"t":1,"event":"mousemove"},{"x":1031,"y":468,"t":14,"event":"mousemove"},{"x":1021,"y":470,"t":31,"event":"mousemove"},{"x":1010,"y":470,"t":46,"event":"mousemove"},{"x":1007,"y":470,"t":63,"event":"mousemove"},{"x":1003,"y":470,"t":80,"event":"mousemove"},{"x":1002,"y":470,"t":97,"event":"mousemove"},{"x":1000,"y":470,"t":115,"event":"mousemove"},{"x":998,"y":470,"t":134,"event":"mousemove"},{"x":998,"y":471,"t":480,"event":"mousemove"},{"x":998,"y":473,"t":485,"event":"mousemove"},{"x":1002,"y":474,"t":493,"event":"mousemove"},{"x":1003,"y":474,"t":496,"event":"mousemove"},{"x":1005,"y":476,"t":503,"event":"mousemove"},{"x":1007,"y":478,"t":505,"event":"mousemove"},{"x":1010,"y":480,"t":512,"event":"mousemove"},{"x":1012,"y":480,"t":515,"event":"mousemove"},{"x":1015,"y":481,"t":521,"event":"mousemove"},{"x":1017,"y":483,"t":525,"event":"mousemove"},{"x":1021,"y":485,"t":530,"event":"mousemove"},{"x":1027,"y":488,"t":547,"event":"mousemove"},{"x":1038,"y":495,"t":564,"event":"mousemove"},{"x":1050,"y":504,"t":579,"event":"mousemove"},{"x":1065,"y":515,"t":597,"event":"mousemove"},{"x":1073,"y":522,"t":613,"event":"mousemove"},{"x":1079,"y":529,"t":630,"event":"mousemove"},{"x":1084,"y":535,"t":646,"event":"mousemove"},{"x":1084,"y":539,"t":663,"event":"mousemove"},{"x":1085,"y":541,"t":681,"event":"mousemove"},{"x":1087,"y":541,"t":935,"event":"mousemove"},{"x":1092,"y":541,"t":942,"event":"mousemove"},{"x":1102,"y":549,"t":960,"event":"mousemove"},{"x":1124,"y":567,"t":977,"event":"mousemove"},{"x":1146,"y":585,"t":992,"event":"mousemove"},{"x":1158,"y":596,"t":1009,"event":"mousemove"},{"x":1165,"y":606,"t":1026,"event":"mousemove"},{"x":1169,"y":607,"t":1043,"event":"mousemove"},{"x":1170,"y":611,"t":1061,"event":"mousemove"},{"x":1172,"y":613,"t":1076,"event":"mousemove"}],"mouse_tracking_targets":{},"correct":true},{"rt":1007,"stimulus":"<p>How confident are you about your choice ?</p>","slider_start":50,"response":94,"trial_type":"html-slider-response","trial_index":40,"time_elapsed":50873,"internal_node_id":"0.0-7.0-2.5"},{"rt":null,"stimulus":"\n        <div id='jspsych-image' style='position: relative; width: min(80vw, 80vh); height: min(80vw, 80vh);'>\n                \n                <div style='position: absolute; top: 40%; left: 30%; bottom: 40%; right: 30%;'><h1 style='font-size: 60px; color: green;'>Correct!</h1></div>\n                \n                <div class='jspsych-image' id='jspsych-image-0' data-choice='0' style='top: 0;     left: 0;'><img style=\"width: 100%; height: 100%;\" src='../static/human_exp_images/task_size/05_1.png' class=''></img></div>\n                <div class='jspsych-image' id='jspsych-image-1' data-choice='1' style='top: 0;     right: 0;'><img style=\"width: 100%; height: 100%;\" src='../static/human_exp_images/task_size/05_2.png' class=''></img></div>\n                <div class='jspsych-image' id='jspsych-image-2' data-choice='2' style='bottom: 0;  left: 0;'><img style=\"width: 100%; height: 100%;\" src='../static/human_exp_images/task_size/05_0.png' class=''></img></div>\n                <div class='jspsych-image' id='jspsych-image-3' data-choice='3' style='bottom: 0;  right: 0;'><img style=\"width: 100%; height: 100%;\" src='../static/human_exp_images/task_size/05_3.png' class='correct-choice'></img></div>\n\n        </div>","response":null,"trial_type":"html-keyboard-response","trial_index":41,"time_elapsed":52374,"internal_node_id":"0.0-7.0-3.5"},{"rt":null,"trial_type":"image-click","trial_index":42,"time_elapsed":52682,"internal_node_id":"0.0-7.0-0.6"},{"rt":836,"response":0,"all_choices":["../static/human_exp_images/task_size/06_3.png","../static/human_exp_images/task_size/06_2.png","../static/human_exp_images/task_size/06_0.png","../static/human_exp_images/task_size/06_1.png"],"task":"response","correct_response":0,"shuffled_array":[3,2,0,1],"catch_trial":false,"trial_type":"image-click","trial_index":43,"time_elapsed":53521,"internal_node_id":"0.0-7.0-1.6","mouse_tracking_data":[{"x":1051,"y":500,"t":1,"event":"mousemove"},{"x":1046,"y":500,"t":14,"event":"mousemove"},{"x":1037,"y":502,"t":31,"event":"mousemove"},{"x":1029,"y":502,"t":47,"event":"mousemove"},{"x":1012,"y":502,"t":64,"event":"mousemove"},{"x":996,"y":502,"t":81,"event":"mousemove"},{"x":983,"y":502,"t":98,"event":"mousemove"},{"x":976,"y":502,"t":114,"event":"mousemove"},{"x":971,"y":502,"t":131,"event":"mousemove"},{"x":967,"y":502,"t":148,"event":"mousemove"},{"x":966,"y":502,"t":164,"event":"mousemove"},{"x":964,"y":502,"t":181,"event":"mousemove"},{"x":964,"y":500,"t":500,"event":"mousemove"},{"x":964,"y":498,"t":505,"event":"mousemove"},{"x":964,"y":497,"t":508,"event":"mousemove"},{"x":962,"y":488,"t":522,"event":"mousemove"},{"x":952,"y":468,"t":539,"event":"mousemove"},{"x":935,"y":431,"t":555,"event":"mousemove"},{"x":917,"y":389,"t":573,"event":"mousemove"},{"x":902,"y":356,"t":589,"event":"mousemove"},{"x":873,"y":315,"t":606,"event":"mousemove"},{"x":846,"y":285,"t":624,"event":"mousemove"},{"x":820,"y":266,"t":640,"event":"mousemove"},{"x":795,"y":251,"t":656,"event":"mousemove"},{"x":780,"y":244,"t":672,"event":"mousemove"},{"x":767,"y":237,"t":690,"event":"mousemove"},{"x":759,"y":232,"t":705,"event":"mousemove"},{"x":753,"y":230,"t":723,"event":"mousemove"},{"x":752,"y":228,"t":740,"event":"mousemove"},{"x":752,"y":227,"t":778,"event":"mousemove"}],"mouse_tracking_targets":{},"correct":true},{"rt":1117,"stimulus":"<p>How confident are you about your choice ?</p>","slider_start":50,"response":92,"trial_type":"html-slider-response","trial_index":44,"time_elapsed":54640,"internal_node_id":"0.0-7.0-2.6"},{"rt":null,"stimulus":"\n        <div id='jspsych-image' style='position: relative; width: min(80vw, 80vh); height: min(80vw, 80vh);'>\n                \n                <div style='position: absolute; top: 40%; left: 30%; bottom: 40%; right: 30%;'><h1 style='font-size: 60px; color: green;'>Correct!</h1></div>\n                \n                <div class='jspsych-image' id='jspsych-image-0' data-choice='0' style='top: 0;     left: 0;'><img style=\"width: 100%; height: 100%;\" src='../static/human_exp_images/task_size/06_3.png' class='correct-choice'></img></div>\n                <div class='jspsych-image' id='jspsych-image-1' data-choice='1' style='top: 0;     right: 0;'><img style=\"width: 100%; height: 100%;\" src='../static/human_exp_images/task_size/06_2.png' class=''></img></div>\n                <div class='jspsych-image' id='jspsych-image-2' data-choice='2' style='bottom: 0;  left: 0;'><img style=\"width: 100%; height: 100%;\" src='../static/human_exp_images/task_size/06_0.png' class=''></img></div>\n                <div class='jspsych-image' id='jspsych-image-3' data-choice='3' style='bottom: 0;  right: 0;'><img style=\"width: 100%; height: 100%;\" src='../static/human_exp_images/task_size/06_1.png' class=''></img></div>\n\n        </div>","response":null,"trial_type":"html-keyboard-response","trial_index":45,"time_elapsed":56142,"internal_node_id":"0.0-7.0-3.6"},{"rt":null,"trial_type":"image-click","trial_index":46,"time_elapsed":56665,"internal_node_id":"0.0-7.0-0.7"},{"rt":1551,"response":3,"all_choices":["../static/human_exp_images/task_size/07_2.png","../static/human_exp_images/task_size/07_0.png","../static/human_exp_images/task_size/07_1.png","../static/human_exp_images/task_size/07_3.png"],"task":"response","correct_response":3,"shuffled_array":[2,0,1,3],"catch_trial":false,"trial_type":"image-click","trial_index":47,"time_elapsed":58217,"internal_node_id":"0.0-7.0-1.7","mouse_tracking_data":[{"x":1047,"y":491,"t":1,"event":"mousemove"},{"x":1040,"y":489,"t":16,"event":"mousemove"},{"x":1036,"y":489,"t":33,"event":"mousemove"},{"x":1035,"y":489,"t":49,"event":"mousemove"},{"x":1033,"y":489,"t":68,"event":"mousemove"},{"x":1031,"y":487,"t":83,"event":"mousemove"},{"x":1028,"y":487,"t":100,"event":"mousemove"},{"x":1026,"y":487,"t":141,"event":"mousemove"},{"x":1026,"y":486,"t":185,"event":"mousemove"},{"x":1026,"y":484,"t":484,"event":"mousemove"},{"x":1026,"y":482,"t":498,"event":"mousemove"},{"x":1026,"y":481,"t":507,"event":"mousemove"},{"x":1026,"y":477,"t":511,"event":"mousemove"},{"x":1026,"y":467,"t":527,"event":"mousemove"},{"x":1036,"y":446,"t":544,"event":"mousemove"},{"x":1062,"y":412,"t":561,"event":"mousemove"},{"x":1078,"y":388,"t":577,"event":"mousemove"},{"x":1081,"y":382,"t":594,"event":"mousemove"},{"x":1085,"y":379,"t":611,"event":"mousemove"},{"x":1085,"y":377,"t":627,"event":"mousemove"},{"x":1087,"y":377,"t":810,"event":"mousemove"},{"x":1090,"y":384,"t":820,"event":"mousemove"},{"x":1092,"y":389,"t":823,"event":"mousemove"},{"x":1095,"y":396,"t":829,"event":"mousemove"},{"x":1095,"y":402,"t":833,"event":"mousemove"},{"x":1100,"y":413,"t":837,"event":"mousemove"},{"x":1108,"y":439,"t":854,"event":"mousemove"},{"x":1120,"y":461,"t":871,"event":"mousemove"},{"x":1125,"y":470,"t":887,"event":"mousemove"},{"x":1127,"y":476,"t":904,"event":"mousemove"},{"x":1137,"y":491,"t":920,"event":"mousemove"},{"x":1145,"y":505,"t":938,"event":"mousemove"},{"x":1151,"y":513,"t":954,"event":"mousemove"},{"x":1160,"y":528,"t":971,"event":"mousemove"},{"x":1167,"y":540,"t":988,"event":"mousemove"},{"x":1172,"y":549,"t":1004,"event":"mousemove"},{"x":1174,"y":556,"t":1021,"event":"mousemove"},{"x":1175,"y":559,"t":1038,"event":"mousemove"},{"x":1177,"y":563,"t":1054,"event":"mousemove"},{"x":1179,"y":563,"t":1340,"event":"mousemove"},{"x":1181,"y":564,"t":1348,"event":"mousemove"},{"x":1184,"y":569,"t":1359,"event":"mousemove"},{"x":1189,"y":575,"t":1374,"event":"mousemove"},{"x":1196,"y":590,"t":1391,"event":"mousemove"},{"x":1210,"y":606,"t":1408,"event":"mousemove"},{"x":1212,"y":611,"t":1425,"event":"mousemove"},{"x":1215,"y":614,"t":1441,"event":"mousemove"},{"x":1215,"y":616,"t":1458,"event":"mousemove"},{"x":1215,"y":618,"t":1474,"event":"mousemove"}],"mouse_tracking_targets":{},"correct":true},{"rt":1146,"stimulus":"<p>How confident are you about your choice ?</p>","slider_start":50,"response":95,"trial_type":"html-slider-response","trial_index":48,"time_elapsed":59364,"internal_node_id":"0.0-7.0-2.7"},{"rt":null,"stimulus":"\n        <div id='jspsych-image' style='position: relative; width: min(80vw, 80vh); height: min(80vw, 80vh);'>\n                \n                <div style='position: absolute; top: 40%; left: 30%; bottom: 40%; right: 30%;'><h1 style='font-size: 60px; color: green;'>Correct!</h1></div>\n                \n                <div class='jspsych-image' id='jspsych-image-0' data-choice='0' style='top: 0;     left: 0;'><img style=\"width: 100%; height: 100%;\" src='../static/human_exp_images/task_size/07_2.png' class=''></img></div>\n                <div class='jspsych-image' id='jspsych-image-1' data-choice='1' style='top: 0;     right: 0;'><img style=\"width: 100%; height: 100%;\" src='../static/human_exp_images/task_size/07_0.png' class=''></img></div>\n                <div class='jspsych-image' id='jspsych-image-2' data-choice='2' style='bottom: 0;  left: 0;'><img style=\"width: 100%; height: 100%;\" src='../static/human_exp_images/task_size/07_1.png' class=''></img></div>\n                <div class='jspsych-image' id='jspsych-image-3' data-choice='3' style='bottom: 0;  right: 0;'><img style=\"width: 100%; height: 100%;\" src='../static/human_exp_images/task_size/07_3.png' class='correct-choice'></img></div>\n\n        </div>","response":null,"trial_type":"html-keyboard-response","trial_index":49,"time_elapsed":60867,"internal_node_id":"0.0-7.0-3.7"},{"rt":null,"trial_type":"image-click","trial_index":50,"time_elapsed":61311,"internal_node_id":"0.0-7.0-0.8"},{"rt":1111,"response":2,"all_choices":["../static/human_exp_images/task_size/08_1.png","../static/human_exp_images/task_size/08_2.png","../static/human_exp_images/task_size/08_3.png","../static/human_exp_images/task_size/08_0.png"],"task":"response","correct_response":2,"shuffled_array":[1,2,3,0],"catch_trial":false,"trial_type":"image-click","trial_index":51,"time_elapsed":62424,"internal_node_id":"0.0-7.0-1.8","mouse_tracking_data":[{"x":1037,"y":473,"t":1,"event":"mousemove"},{"x":1003,"y":463,"t":15,"event":"mousemove"},{"x":986,"y":459,"t":32,"event":"mousemove"},{"x":973,"y":455,"t":48,"event":"mousemove"},{"x":969,"y":455,"t":64,"event":"mousemove"},{"x":966,"y":455,"t":82,"event":"mousemove"},{"x":961,"y":455,"t":98,"event":"mousemove"},{"x":968,"y":455,"t":224,"event":"mousemove"},{"x":970,"y":458,"t":232,"event":"mousemove"},{"x":990,"y":472,"t":247,"event":"mousemove"},{"x":996,"y":477,"t":265,"event":"mousemove"},{"x":1002,"y":479,"t":282,"event":"mousemove"},{"x":1003,"y":479,"t":306,"event":"mousemove"},{"x":1003,"y":480,"t":652,"event":"mousemove"},{"x":1003,"y":482,"t":664,"event":"mousemove"},{"x":1002,"y":482,"t":670,"event":"mousemove"},{"x":1000,"y":484,"t":674,"event":"mousemove"},{"x":991,"y":484,"t":679,"event":"mousemove"},{"x":964,"y":490,"t":695,"event":"mousemove"},{"x":940,"y":496,"t":712,"event":"mousemove"},{"x":927,"y":500,"t":729,"event":"mousemove"},{"x":921,"y":501,"t":746,"event":"mousemove"},{"x":919,"y":501,"t":762,"event":"mousemove"},{"x":917,"y":501,"t":779,"event":"mousemove"},{"x":915,"y":501,"t":794,"event":"mousemove"},{"x":914,"y":503,"t":878,"event":"mousemove"},{"x":910,"y":505,"t":886,"event":"mousemove"},{"x":909,"y":505,"t":887,"event":"mousemove"},{"x":903,"y":510,"t":899,"event":"mousemove"},{"x":891,"y":517,"t":915,"event":"mousemove"},{"x":861,"y":541,"t":932,"event":"mousemove"},{"x":810,"y":586,"t":948,"event":"mousemove"},{"x":754,"y":643,"t":965,"event":"mousemove"},{"x":690,"y":709,"t":982,"event":"mousemove"},{"x":661,"y":743,"t":999,"event":"mousemove"},{"x":632,"y":771,"t":1015,"event":"mousemove"},{"x":626,"y":779,"t":1032,"event":"mousemove"},{"x":626,"y":780,"t":1048,"event":"mousemove"}],"mouse_tracking_targets":{},"correct":true},{"rt":1162,"stimulus":"<p>How confident are you about your choice ?</p>","slider_start":50,"response":89,"trial_type":"html-slider-response","trial_index":52,"time_elapsed":63588,"internal_node_id":"0.0-7.0-2.8"},{"rt":null,"stimulus":"\n        <div id='jspsych-image' style='position: relative; width: min(80vw, 80vh); height: min(80vw, 80vh);'>\n                \n                <div style='position: absolute; top: 40%; left: 30%; bottom: 40%; right: 30%;'><h1 style='font-size: 60px; color: green;'>Correct!</h1></div>\n                \n                <div class='jspsych-image' id='jspsych-image-0' data-choice='0' style='top: 0;     left: 0;'><img style=\"width: 100%; height: 100%;\" src='../static/human_exp_images/task_size/08_1.png' class=''></img></div>\n                <div class='jspsych-image' id='jspsych-image-1' data-choice='1' style='top: 0;     right: 0;'><img style=\"width: 100%; height: 100%;\" src='../static/human_exp_images/task_size/08_2.png' class=''></img></div>\n                <div class='jspsych-image' id='jspsych-image-2' data-choice='2' style='bottom: 0;  left: 0;'><img style=\"width: 100%; height: 100%;\" src='../static/human_exp_images/task_size/08_3.png' class='correct-choice'></img></div>\n                <div class='jspsych-image' id='jspsych-image-3' data-choice='3' style='bottom: 0;  right: 0;'><img style=\"width: 100%; height: 100%;\" src='../static/human_exp_images/task_size/08_0.png' class=''></img></div>\n\n        </div>","response":null,"trial_type":"html-keyboard-response","trial_index":53,"time_elapsed":65091,"internal_node_id":"0.0-7.0-3.8"},{"rt":null,"trial_type":"image-click","trial_index":54,"time_elapsed":66020,"internal_node_id":"0.0-7.0-0.9"},{"rt":832,"response":2,"all_choices":["../static/human_exp_images/task_size/08_1.png","../static/human_exp_images/task_size/08_2.png","../static/human_exp_images/task_size/08_3.png","../static/human_exp_images/task_size/08_0.png"],"task":"response","correct_response":2,"shuffled_array":[1,2,3,0],"catch_trial":true,"trial_type":"image-click","trial_index":55,"time_elapsed":66855,"internal_node_id":"0.0-7.0-1.9","mouse_tracking_data":[{"x":1050,"y":479,"t":1,"event":"mousemove"},{"x":1041,"y":479,"t":15,"event":"mousemove"},{"x":1020,"y":484,"t":32,"event":"mousemove"},{"x":980,"y":491,"t":48,"event":"mousemove"},{"x":959,"y":496,"t":66,"event":"mousemove"},{"x":948,"y":500,"t":81,"event":"mousemove"},{"x":944,"y":500,"t":98,"event":"mousemove"},{"x":942,"y":500,"t":116,"event":"mousemove"},{"x":944,"y":500,"t":240,"event":"mousemove"},{"x":946,"y":502,"t":244,"event":"mousemove"},{"x":951,"y":502,"t":261,"event":"mousemove"},{"x":956,"y":502,"t":278,"event":"mousemove"},{"x":958,"y":502,"t":293,"event":"mousemove"},{"x":960,"y":502,"t":317,"event":"mousemove"},{"x":961,"y":502,"t":399,"event":"mousemove"},{"x":963,"y":502,"t":427,"event":"mousemove"},{"x":965,"y":502,"t":435,"event":"mousemove"},{"x":966,"y":502,"t":444,"event":"mousemove"},{"x":968,"y":502,"t":449,"event":"mousemove"},{"x":972,"y":502,"t":455,"event":"mousemove"},{"x":973,"y":502,"t":458,"event":"mousemove"},{"x":975,"y":502,"t":463,"event":"mousemove"},{"x":977,"y":502,"t":473,"event":"mousemove"},{"x":980,"y":502,"t":489,"event":"mousemove"},{"x":982,"y":502,"t":506,"event":"mousemove"},{"x":983,"y":502,"t":522,"event":"mousemove"},{"x":983,"y":505,"t":574,"event":"mousemove"},{"x":980,"y":520,"t":590,"event":"mousemove"},{"x":954,"y":541,"t":607,"event":"mousemove"},{"x":905,"y":580,"t":624,"event":"mousemove"},{"x":856,"y":611,"t":641,"event":"mousemove"},{"x":821,"y":629,"t":657,"event":"mousemove"},{"x":801,"y":643,"t":674,"event":"mousemove"},{"x":790,"y":649,"t":691,"event":"mousemove"},{"x":781,"y":657,"t":708,"event":"mousemove"},{"x":770,"y":665,"t":725,"event":"mousemove"},{"x":762,"y":671,"t":740,"event":"mousemove"},{"x":759,"y":676,"t":758,"event":"mousemove"},{"x":755,"y":677,"t":774,"event":"mousemove"}],"mouse_tracking_targets":{},"correct":true},{"rt":1273,"stimulus":"<p>How confident are you about your choice ?</p>","slider_start":50,"response":99,"trial_type":"html-slider-response","trial_index":56,"time_elapsed":68129,"internal_node_id":"0.0-7.0-2.9"},{"rt":null,"stimulus":"\n        <div id='jspsych-image' style='position: relative; width: min(80vw, 80vh); height: min(80vw, 80vh);'>\n                \n                <div style='position: absolute; top: 40%; left: 30%; bottom: 40%; right: 30%;'><h1 style='font-size: 60px; color: green;'>Correct!</h1></div>\n                \n                <div class='jspsych-image' id='jspsych-image-0' data-choice='0' style='top: 0;     left: 0;'><img style=\"width: 100%; height: 100%;\" src='../static/human_exp_images/task_size/08_1.png' class=''></img></div>\n                <div class='jspsych-image' id='jspsych-image-1' data-choice='1' style='top: 0;     right: 0;'><img style=\"width: 100%; height: 100%;\" src='../static/human_exp_images/task_size/08_2.png' class=''></img></div>\n                <div class='jspsych-image' id='jspsych-image-2' data-choice='2' style='bottom: 0;  left: 0;'><img style=\"width: 100%; height: 100%;\" src='../static/human_exp_images/task_size/08_3.png' class='correct-choice'></img></div>\n                <div class='jspsych-image' id='jspsych-image-3' data-choice='3' style='bottom: 0;  right: 0;'><img style=\"width: 100%; height: 100%;\" src='../static/human_exp_images/task_size/08_0.png' class=''></img></div>\n\n        </div>","response":null,"trial_type":"html-keyboard-response","trial_index":57,"time_elapsed":69631,"internal_node_id":"0.0-7.0-3.9"},{"rt":null,"trial_type":"image-click","trial_index":58,"time_elapsed":70182,"internal_node_id":"0.0-7.0-0.10"},{"rt":1731,"response":3,"all_choices":["../static/human_exp_images/task_size/09_0.png","../static/human_exp_images/task_size/09_1.png","../static/human_exp_images/task_size/09_2.png","../static/human_exp_images/task_size/09_3.png"],"task":"response","correct_response":3,"shuffled_array":[0,1,2,3],"catch_trial":false,"trial_type":"image-click","trial_index":59,"time_elapsed":71918,"internal_node_id":"0.0-7.0-1.10","mouse_tracking_data":[{"x":1045,"y":477,"t":0,"event":"mousemove"},{"x":1042,"y":477,"t":9,"event":"mousemove"},{"x":1037,"y":477,"t":26,"event":"mousemove"},{"x":1032,"y":477,"t":43,"event":"mousemove"},{"x":1021,"y":477,"t":60,"event":"mousemove"},{"x":1016,"y":477,"t":76,"event":"mousemove"},{"x":1011,"y":477,"t":93,"event":"mousemove"},{"x":1009,"y":477,"t":110,"event":"mousemove"},{"x":1008,"y":477,"t":128,"event":"mousemove"},{"x":1009,"y":477,"t":546,"event":"mousemove"},{"x":1011,"y":477,"t":551,"event":"mousemove"},{"x":1014,"y":477,"t":556,"event":"mousemove"},{"x":1021,"y":477,"t":572,"event":"mousemove"},{"x":1031,"y":477,"t":589,"event":"mousemove"},{"x":1042,"y":477,"t":605,"event":"mousemove"},{"x":1052,"y":477,"t":622,"event":"mousemove"},{"x":1061,"y":477,"t":638,"event":"mousemove"},{"x":1067,"y":477,"t":656,"event":"mousemove"},{"x":1071,"y":477,"t":672,"event":"mousemove"},{"x":1072,"y":477,"t":688,"event":"mousemove"},{"x":1074,"y":477,"t":706,"event":"mousemove"},{"x":1076,"y":477,"t":835,"event":"mousemove"},{"x":1078,"y":477,"t":854,"event":"mousemove"},{"x":1079,"y":477,"t":857,"event":"mousemove"},{"x":1081,"y":477,"t":862,"event":"mousemove"},{"x":1083,"y":477,"t":872,"event":"mousemove"},{"x":1088,"y":479,"t":888,"event":"mousemove"},{"x":1091,"y":484,"t":905,"event":"mousemove"},{"x":1096,"y":487,"t":921,"event":"mousemove"},{"x":1103,"y":496,"t":939,"event":"mousemove"},{"x":1108,"y":501,"t":955,"event":"mousemove"},{"x":1113,"y":510,"t":972,"event":"mousemove"},{"x":1117,"y":515,"t":989,"event":"mousemove"},{"x":1122,"y":522,"t":1005,"event":"mousemove"},{"x":1127,"y":528,"t":1022,"event":"mousemove"},{"x":1129,"y":532,"t":1038,"event":"mousemove"},{"x":1132,"y":537,"t":1056,"event":"mousemove"},{"x":1132,"y":539,"t":1072,"event":"mousemove"},{"x":1134,"y":540,"t":1088,"event":"mousemove"},{"x":1134,"y":542,"t":1105,"event":"mousemove"},{"x":1134,"y":544,"t":1122,"event":"mousemove"},{"x":1134,"y":546,"t":1139,"event":"mousemove"},{"x":1135,"y":546,"t":1466,"event":"mousemove"},{"x":1139,"y":547,"t":1474,"event":"mousemove"},{"x":1144,"y":556,"t":1490,"event":"mousemove"},{"x":1152,"y":569,"t":1507,"event":"mousemove"},{"x":1158,"y":580,"t":1523,"event":"mousemove"},{"x":1163,"y":588,"t":1541,"event":"mousemove"},{"x":1164,"y":592,"t":1557,"event":"mousemove"},{"x":1164,"y":593,"t":1574,"event":"mousemove"},{"x":1166,"y":595,"t":1591,"event":"mousemove"},{"x":1166,"y":597,"t":1607,"event":"mousemove"}],"mouse_tracking_targets":{},"correct":true},{"rt":854,"stimulus":"<p>How confident are you about your choice ?</p>","slider_start":50,"response":99,"trial_type":"html-slider-response","trial_index":60,"time_elapsed":72777,"internal_node_id":"0.0-7.0-2.10"},{"rt":null,"stimulus":"\n        <div id='jspsych-image' style='position: relative; width: min(80vw, 80vh); height: min(80vw, 80vh);'>\n                \n                <div style='position: absolute; top: 40%; left: 30%; bottom: 40%; right: 30%;'><h1 style='font-size: 60px; color: green;'>Correct!</h1></div>\n                \n                <div class='jspsych-image' id='jspsych-image-0' data-choice='0' style='top: 0;     left: 0;'><img style=\"width: 100%; height: 100%;\" src='../static/human_exp_images/task_size/09_0.png' class=''></img></div>\n                <div class='jspsych-image' id='jspsych-image-1' data-choice='1' style='top: 0;     right: 0;'><img style=\"width: 100%; height: 100%;\" src='../static/human_exp_images/task_size/09_1.png' class=''></img></div>\n                <div class='jspsych-image' id='jspsych-image-2' data-choice='2' style='bottom: 0;  left: 0;'><img style=\"width: 100%; height: 100%;\" src='../static/human_exp_images/task_size/09_2.png' class=''></img></div>\n                <div class='jspsych-image' id='jspsych-image-3' data-choice='3' style='bottom: 0;  right: 0;'><img style=\"width: 100%; height: 100%;\" src='../static/human_exp_images/task_size/09_3.png' class='correct-choice'></img></div>\n\n        </div>","response":null,"trial_type":"html-keyboard-response","trial_index":61,"time_elapsed":74282,"internal_node_id":"0.0-7.0-3.10"},{"rt":null,"trial_type":"image-click","trial_index":62,"time_elapsed":74814,"internal_node_id":"0.0-7.0-0.11"},{"rt":1612,"response":2,"all_choices":["../static/human_exp_images/task_size/10_2.png","../static/human_exp_images/task_size/10_0.png","../static/human_exp_images/task_size/10_3.png","../static/human_exp_images/task_size/10_1.png"],"task":"response","correct_response":2,"shuffled_array":[2,0,3,1],"catch_trial":false,"trial_type":"image-click","trial_index":63,"time_elapsed":76431,"internal_node_id":"0.0-7.0-1.11","mouse_tracking_data":[{"x":1047,"y":479,"t":0,"event":"mousemove"},{"x":1039,"y":479,"t":12,"event":"mousemove"},{"x":1033,"y":479,"t":27,"event":"mousemove"},{"x":1029,"y":483,"t":926,"event":"mousemove"},{"x":1018,"y":494,"t":943,"event":"mousemove"},{"x":977,"y":536,"t":960,"event":"mousemove"},{"x":910,"y":599,"t":975,"event":"mousemove"},{"x":855,"y":651,"t":993,"event":"mousemove"},{"x":793,"y":705,"t":1011,"event":"mousemove"},{"x":740,"y":762,"t":1027,"event":"mousemove"},{"x":695,"y":807,"t":1043,"event":"mousemove"},{"x":642,"y":864,"t":1060,"event":"mousemove"},{"x":614,"y":892,"t":1077,"event":"mousemove"},{"x":605,"y":901,"t":1093,"event":"mousemove"},{"x":605,"y":903,"t":1110,"event":"mousemove"},{"x":607,"y":903,"t":1298,"event":"mousemove"},{"x":613,"y":901,"t":1309,"event":"mousemove"},{"x":633,"y":886,"t":1326,"event":"mousemove"},{"x":642,"y":878,"t":1342,"event":"mousemove"},{"x":661,"y":861,"t":1360,"event":"mousemove"},{"x":676,"y":846,"t":1376,"event":"mousemove"},{"x":687,"y":833,"t":1393,"event":"mousemove"},{"x":692,"y":822,"t":1410,"event":"mousemove"},{"x":696,"y":814,"t":1426,"event":"mousemove"},{"x":699,"y":807,"t":1443,"event":"mousemove"},{"x":701,"y":797,"t":1459,"event":"mousemove"},{"x":701,"y":792,"t":1476,"event":"mousemove"},{"x":703,"y":788,"t":1492,"event":"mousemove"},{"x":703,"y":787,"t":1509,"event":"mousemove"}],"mouse_tracking_targets":{},"correct":true},{"rt":1058,"stimulus":"<p>How confident are you about your choice ?</p>","slider_start":50,"response":91,"trial_type":"html-slider-response","trial_index":64,"time_elapsed":77493,"internal_node_id":"0.0-7.0-2.11"},{"rt":null,"stimulus":"\n        <div id='jspsych-image' style='position: relative; width: min(80vw, 80vh); height: min(80vw, 80vh);'>\n                \n                <div style='position: absolute; top: 40%; left: 30%; bottom: 40%; right: 30%;'><h1 style='font-size: 60px; color: green;'>Correct!</h1></div>\n                \n                <div class='jspsych-image' id='jspsych-image-0' data-choice='0' style='top: 0;     left: 0;'><img style=\"width: 100%; height: 100%;\" src='../static/human_exp_images/task_size/10_2.png' class=''></img></div>\n                <div class='jspsych-image' id='jspsych-image-1' data-choice='1' style='top: 0;     right: 0;'><img style=\"width: 100%; height: 100%;\" src='../static/human_exp_images/task_size/10_0.png' class=''></img></div>\n                <div class='jspsych-image' id='jspsych-image-2' data-choice='2' style='bottom: 0;  left: 0;'><img style=\"width: 100%; height: 100%;\" src='../static/human_exp_images/task_size/10_3.png' class='correct-choice'></img></div>\n                <div class='jspsych-image' id='jspsych-image-3' data-choice='3' style='bottom: 0;  right: 0;'><img style=\"width: 100%; height: 100%;\" src='../static/human_exp_images/task_size/10_1.png' class=''></img></div>\n\n        </div>","response":null,"trial_type":"html-keyboard-response","trial_index":65,"time_elapsed":78996,"internal_node_id":"0.0-7.0-3.11"},{"rt":null,"trial_type":"image-click","trial_index":66,"time_elapsed":80737,"internal_node_id":"0.0-7.0-0.12"},{"rt":1603,"response":1,"all_choices":["../static/human_exp_images/task_size/11_1.png","../static/human_exp_images/task_size/11_3.png","../static/human_exp_images/task_size/11_2.png","../static/human_exp_images/task_size/11_0.png"],"task":"response","correct_response":1,"shuffled_array":[1,3,2,0],"catch_trial":false,"trial_type":"image-click","trial_index":67,"time_elapsed":82342,"internal_node_id":"0.0-7.0-1.12","mouse_tracking_data":[{"x":1045,"y":469,"t":2,"event":"mousemove"},{"x":1041,"y":469,"t":15,"event":"mousemove"},{"x":1036,"y":469,"t":31,"event":"mousemove"},{"x":1028,"y":469,"t":48,"event":"mousemove"},{"x":1012,"y":469,"t":64,"event":"mousemove"},{"x":1002,"y":469,"t":81,"event":"mousemove"},{"x":992,"y":469,"t":98,"event":"mousemove"},{"x":988,"y":469,"t":114,"event":"mousemove"},{"x":983,"y":469,"t":130,"event":"mousemove"},{"x":982,"y":469,"t":152,"event":"mousemove"},{"x":980,"y":469,"t":171,"event":"mousemove"},{"x":978,"y":469,"t":821,"event":"mousemove"},{"x":977,"y":469,"t":839,"event":"mousemove"},{"x":975,"y":469,"t":848,"event":"mousemove"},{"x":972,"y":469,"t":856,"event":"mousemove"},{"x":968,"y":469,"t":866,"event":"mousemove"},{"x":966,"y":469,"t":870,"event":"mousemove"},{"x":965,"y":469,"t":875,"event":"mousemove"},{"x":963,"y":469,"t":880,"event":"mousemove"},{"x":958,"y":469,"t":884,"event":"mousemove"},{"x":947,"y":469,"t":900,"event":"mousemove"},{"x":930,"y":469,"t":917,"event":"mousemove"},{"x":911,"y":469,"t":934,"event":"mousemove"},{"x":899,"y":469,"t":950,"event":"mousemove"},{"x":894,"y":469,"t":967,"event":"mousemove"},{"x":892,"y":469,"t":984,"event":"mousemove"},{"x":891,"y":469,"t":1001,"event":"mousemove"},{"x":891,"y":467,"t":1017,"event":"mousemove"},{"x":894,"y":465,"t":1178,"event":"mousemove"},{"x":896,"y":465,"t":1182,"event":"mousemove"},{"x":901,"y":462,"t":1187,"event":"mousemove"},{"x":921,"y":452,"t":1204,"event":"mousemove"},{"x":974,"y":418,"t":1220,"event":"mousemove"},{"x":1040,"y":370,"t":1236,"event":"mousemove"},{"x":1105,"y":327,"t":1255,"event":"mousemove"},{"x":1115,"y":316,"t":1270,"event":"mousemove"},{"x":1138,"y":299,"t":1287,"event":"mousemove"},{"x":1146,"y":292,"t":1303,"event":"mousemove"},{"x":1151,"y":288,"t":1321,"event":"mousemove"},{"x":1155,"y":285,"t":1337,"event":"mousemove"},{"x":1160,"y":276,"t":1353,"event":"mousemove"},{"x":1163,"y":271,"t":1371,"event":"mousemove"},{"x":1168,"y":263,"t":1387,"event":"mousemove"},{"x":1172,"y":257,"t":1403,"event":"mousemove"},{"x":1174,"y":257,"t":1420,"event":"mousemove"}],"mouse_tracking_targets":{},"correct":true},{"rt":3146,"stimulus":"<p>How confident are you about your choice ?</p>","slider_start":50,"response":93,"trial_type":"html-slider-response","trial_index":68,"time_elapsed":85490,"internal_node_id":"0.0-7.0-2.12"},{"rt":null,"stimulus":"\n        <div id='jspsych-image' style='position: relative; width: min(80vw, 80vh); height: min(80vw, 80vh);'>\n                \n                <div style='position: absolute; top: 40%; left: 30%; bottom: 40%; right: 30%;'><h1 style='font-size: 60px; color: green;'>Correct!</h1></div>\n                \n                <div class='jspsych-image' id='jspsych-image-0' data-choice='0' style='top: 0;     left: 0;'><img style=\"width: 100%; height: 100%;\" src='../static/human_exp_images/task_size/11_1.png' class=''></img></div>\n                <div class='jspsych-image' id='jspsych-image-1' data-choice='1' style='top: 0;     right: 0;'><img style=\"width: 100%; height: 100%;\" src='../static/human_exp_images/task_size/11_3.png' class='correct-choice'></img></div>\n                <div class='jspsych-image' id='jspsych-image-2' data-choice='2' style='bottom: 0;  left: 0;'><img style=\"width: 100%; height: 100%;\" src='../static/human_exp_images/task_size/11_2.png' class=''></img></div>\n                <div class='jspsych-image' id='jspsych-image-3' data-choice='3' style='bottom: 0;  right: 0;'><img style=\"width: 100%; height: 100%;\" src='../static/human_exp_images/task_size/11_0.png' class=''></img></div>\n\n        </div>","response":null,"trial_type":"html-keyboard-response","trial_index":69,"time_elapsed":86992,"internal_node_id":"0.0-7.0-3.12"},{"rt":null,"trial_type":"image-click","trial_index":70,"time_elapsed":87534,"internal_node_id":"0.0-7.0-0.13"},{"rt":747,"response":2,"all_choices":["../static/human_exp_images/task_size/12_1.png","../static/human_exp_images/task_size/12_2.png","../static/human_exp_images/task_size/12_3.png","../static/human_exp_images/task_size/12_0.png"],"task":"response","correct_response":2,"shuffled_array":[1,2,3,0],"catch_trial":false,"trial_type":"image-click","trial_index":71,"time_elapsed":88283,"internal_node_id":"0.0-7.0-1.13","mouse_tracking_data":[{"x":1017,"y":479,"t":1,"event":"mousemove"},{"x":980,"y":476,"t":15,"event":"mousemove"},{"x":956,"y":474,"t":31,"event":"mousemove"},{"x":941,"y":472,"t":47,"event":"mousemove"},{"x":932,"y":470,"t":64,"event":"mousemove"},{"x":926,"y":469,"t":80,"event":"mousemove"},{"x":920,"y":469,"t":97,"event":"mousemove"},{"x":919,"y":467,"t":114,"event":"mousemove"},{"x":917,"y":467,"t":130,"event":"mousemove"},{"x":915,"y":467,"t":157,"event":"mousemove"},{"x":915,"y":465,"t":186,"event":"mousemove"},{"x":915,"y":463,"t":204,"event":"mousemove"},{"x":915,"y":462,"t":242,"event":"mousemove"},{"x":915,"y":460,"t":259,"event":"mousemove"},{"x":917,"y":460,"t":306,"event":"mousemove"},{"x":919,"y":460,"t":317,"event":"mousemove"},{"x":920,"y":460,"t":325,"event":"mousemove"},{"x":922,"y":460,"t":333,"event":"mousemove"},{"x":924,"y":460,"t":352,"event":"mousemove"},{"x":926,"y":460,"t":370,"event":"mousemove"},{"x":919,"y":463,"t":518,"event":"mousemove"},{"x":915,"y":465,"t":521,"event":"mousemove"},{"x":904,"y":474,"t":525,"event":"mousemove"},{"x":873,"y":496,"t":542,"event":"mousemove"},{"x":836,"y":527,"t":559,"event":"mousemove"},{"x":815,"y":551,"t":575,"event":"mousemove"},{"x":804,"y":569,"t":591,"event":"mousemove"},{"x":794,"y":581,"t":609,"event":"mousemove"},{"x":791,"y":586,"t":625,"event":"mousemove"},{"x":786,"y":593,"t":643,"event":"mousemove"},{"x":784,"y":596,"t":658,"event":"mousemove"},{"x":784,"y":598,"t":676,"event":"mousemove"}],"mouse_tracking_targets":{},"correct":true},{"rt":1158,"stimulus":"<p>How confident are you about your choice ?</p>","slider_start":50,"response":96,"trial_type":"html-slider-response","trial_index":72,"time_elapsed":89441,"internal_node_id":"0.0-7.0-2.13"},{"rt":null,"stimulus":"\n        <div id='jspsych-image' style='position: relative; width: min(80vw, 80vh); height: min(80vw, 80vh);'>\n                \n                <div style='position: absolute; top: 40%; left: 30%; bottom: 40%; right: 30%;'><h1 style='font-size: 60px; color: green;'>Correct!</h1></div>\n                \n                <div class='jspsych-image' id='jspsych-image-0' data-choice='0' style='top: 0;     left: 0;'><img style=\"width: 100%; height: 100%;\" src='../static/human_exp_images/task_size/12_1.png' class=''></img></div>\n                <div class='jspsych-image' id='jspsych-image-1' data-choice='1' style='top: 0;     right: 0;'><img style=\"width: 100%; height: 100%;\" src='../static/human_exp_images/task_size/12_2.png' class=''></img></div>\n                <div class='jspsych-image' id='jspsych-image-2' data-choice='2' style='bottom: 0;  left: 0;'><img style=\"width: 100%; height: 100%;\" src='../static/human_exp_images/task_size/12_3.png' class='correct-choice'></img></div>\n                <div class='jspsych-image' id='jspsych-image-3' data-choice='3' style='bottom: 0;  right: 0;'><img style=\"width: 100%; height: 100%;\" src='../static/human_exp_images/task_size/12_0.png' class=''></img></div>\n\n        </div>","response":null,"trial_type":"html-keyboard-response","trial_index":73,"time_elapsed":90946,"internal_node_id":"0.0-7.0-3.13"},{"rt":null,"trial_type":"image-click","trial_index":74,"time_elapsed":90947,"internal_node_id":"0.0-7.0-0.14"},{"rt":1061,"response":0,"all_choices":["../static/human_exp_images/task_size/13_3.png","../static/human_exp_images/task_size/13_2.png","../static/human_exp_images/task_size/13_1.png","../static/human_exp_images/task_size/13_0.png"],"task":"response","correct_response":0,"shuffled_array":[3,2,1,0],"catch_trial":false,"trial_type":"image-click","trial_index":75,"time_elapsed":92011,"internal_node_id":"0.0-7.0-1.14","mouse_tracking_data":[{"x":1027,"y":442,"t":103,"event":"mousemove"},{"x":1036,"y":442,"t":112,"event":"mousemove"},{"x":1043,"y":442,"t":129,"event":"mousemove"},{"x":1057,"y":442,"t":147,"event":"mousemove"},{"x":1071,"y":443,"t":162,"event":"mousemove"},{"x":1079,"y":443,"t":180,"event":"mousemove"},{"x":1091,"y":445,"t":196,"event":"mousemove"},{"x":1101,"y":447,"t":212,"event":"mousemove"},{"x":1110,"y":448,"t":229,"event":"mousemove"},{"x":1117,"y":448,"t":246,"event":"mousemove"},{"x":1124,"y":448,"t":261,"event":"mousemove"},{"x":1129,"y":448,"t":279,"event":"mousemove"},{"x":1131,"y":448,"t":296,"event":"mousemove"},{"x":1132,"y":448,"t":331,"event":"mousemove"},{"x":1132,"y":450,"t":512,"event":"mousemove"},{"x":1132,"y":452,"t":641,"event":"mousemove"},{"x":1132,"y":454,"t":686,"event":"mousemove"},{"x":1129,"y":454,"t":696,"event":"mousemove"},{"x":1119,"y":455,"t":711,"event":"mousemove"},{"x":1107,"y":455,"t":729,"event":"mousemove"},{"x":1096,"y":457,"t":745,"event":"mousemove"},{"x":1081,"y":457,"t":762,"event":"mousemove"},{"x":1060,"y":457,"t":778,"event":"mousemove"},{"x":1033,"y":457,"t":795,"event":"mousemove"},{"x":984,"y":448,"t":812,"event":"mousemove"},{"x":945,"y":429,"t":829,"event":"mousemove"},{"x":905,"y":410,"t":846,"event":"mousemove"},{"x":872,"y":391,"t":862,"event":"mousemove"},{"x":834,"y":372,"t":879,"event":"mousemove"},{"x":810,"y":358,"t":895,"event":"mousemove"},{"x":783,"y":346,"t":913,"event":"mousemove"},{"x":765,"y":338,"t":928,"event":"mousemove"},{"x":755,"y":333,"t":945,"event":"mousemove"},{"x":755,"y":331,"t":999,"event":"mousemove"},{"x":755,"y":330,"t":1061,"event":"mousemove"}],"mouse_tracking_targets":{},"correct":true},{"rt":1024,"stimulus":"<p>How confident are you about your choice ?</p>","slider_start":50,"response":88,"trial_type":"html-slider-response","trial_index":76,"time_elapsed":93036,"internal_node_id":"0.0-7.0-2.14"},{"rt":null,"stimulus":"\n        <div id='jspsych-image' style='position: relative; width: min(80vw, 80vh); height: min(80vw, 80vh);'>\n                \n                <div style='position: absolute; top: 40%; left: 30%; bottom: 40%; right: 30%;'><h1 style='font-size: 60px; color: green;'>Correct!</h1></div>\n                \n                <div class='jspsych-image' id='jspsych-image-0' data-choice='0' style='top: 0;     left: 0;'><img style=\"width: 100%; height: 100%;\" src='../static/human_exp_images/task_size/13_3.png' class='correct-choice'></img></div>\n                <div class='jspsych-image' id='jspsych-image-1' data-choice='1' style='top: 0;     right: 0;'><img style=\"width: 100%; height: 100%;\" src='../static/human_exp_images/task_size/13_2.png' class=''></img></div>\n                <div class='jspsych-image' id='jspsych-image-2' data-choice='2' style='bottom: 0;  left: 0;'><img style=\"width: 100%; height: 100%;\" src='../static/human_exp_images/task_size/13_1.png' class=''></img></div>\n                <div class='jspsych-image' id='jspsych-image-3' data-choice='3' style='bottom: 0;  right: 0;'><img style=\"width: 100%; height: 100%;\" src='../static/human_exp_images/task_size/13_0.png' class=''></img></div>\n\n        </div>","response":null,"trial_type":"html-keyboard-response","trial_index":77,"time_elapsed":94539,"internal_node_id":"0.0-7.0-3.14"},{"rt":null,"trial_type":"image-click","trial_index":78,"time_elapsed":94939,"internal_node_id":"0.0-7.0-0.15"},{"rt":1010,"response":3,"all_choices":["../static/human_exp_images/task_size/14_1.png","../static/human_exp_images/task_size/14_2.png","../static/human_exp_images/task_size/14_0.png","../static/human_exp_images/task_size/14_3.png"],"task":"response","correct_response":3,"shuffled_array":[1,2,0,3],"catch_trial":false,"trial_type":"image-click","trial_index":79,"time_elapsed":95952,"internal_node_id":"0.0-7.0-1.15","mouse_tracking_data":[{"x":1019,"y":471,"t":2,"event":"mousemove"},{"x":991,"y":465,"t":13,"event":"mousemove"},{"x":977,"y":460,"t":30,"event":"mousemove"},{"x":973,"y":460,"t":46,"event":"mousemove"},{"x":970,"y":460,"t":64,"event":"mousemove"},{"x":968,"y":460,"t":81,"event":"mousemove"},{"x":968,"y":459,"t":164,"event":"mousemove"},{"x":968,"y":457,"t":227,"event":"mousemove"},{"x":968,"y":455,"t":274,"event":"mousemove"},{"x":968,"y":454,"t":300,"event":"mousemove"},{"x":970,"y":454,"t":751,"event":"mousemove"},{"x":975,"y":454,"t":756,"event":"mousemove"},{"x":977,"y":454,"t":760,"event":"mousemove"},{"x":983,"y":459,"t":765,"event":"mousemove"},{"x":1015,"y":487,"t":782,"event":"mousemove"},{"x":1061,"y":543,"t":799,"event":"mousemove"},{"x":1106,"y":601,"t":815,"event":"mousemove"},{"x":1138,"y":639,"t":832,"event":"mousemove"},{"x":1157,"y":663,"t":848,"event":"mousemove"},{"x":1168,"y":677,"t":866,"event":"mousemove"},{"x":1177,"y":683,"t":882,"event":"mousemove"},{"x":1185,"y":694,"t":898,"event":"mousemove"},{"x":1196,"y":702,"t":915,"event":"mousemove"},{"x":1201,"y":707,"t":932,"event":"mousemove"},{"x":1206,"y":712,"t":949,"event":"mousemove"}],"mouse_tracking_targets":{},"correct":true},{"rt":1349,"stimulus":"<p>How confident are you about your choice ?</p>","slider_start":50,"response":96,"trial_type":"html-slider-response","trial_index":80,"time_elapsed":97302,"internal_node_id":"0.0-7.0-2.15"},{"rt":null,"stimulus":"\n        <div id='jspsych-image' style='position: relative; width: min(80vw, 80vh); height: min(80vw, 80vh);'>\n                \n                <div style='position: absolute; top: 40%; left: 30%; bottom: 40%; right: 30%;'><h1 style='font-size: 60px; color: green;'>Correct!</h1></div>\n                \n                <div class='jspsych-image' id='jspsych-image-0' data-choice='0' style='top: 0;     left: 0;'><img style=\"width: 100%; height: 100%;\" src='../static/human_exp_images/task_size/14_1.png' class=''></img></div>\n                <div class='jspsych-image' id='jspsych-image-1' data-choice='1' style='top: 0;     right: 0;'><img style=\"width: 100%; height: 100%;\" src='../static/human_exp_images/task_size/14_2.png' class=''></img></div>\n                <div class='jspsych-image' id='jspsych-image-2' data-choice='2' style='bottom: 0;  left: 0;'><img style=\"width: 100%; height: 100%;\" src='../static/human_exp_images/task_size/14_0.png' class=''></img></div>\n                <div class='jspsych-image' id='jspsych-image-3' data-choice='3' style='bottom: 0;  right: 0;'><img style=\"width: 100%; height: 100%;\" src='../static/human_exp_images/task_size/14_3.png' class='correct-choice'></img></div>\n\n        </div>","response":null,"trial_type":"html-keyboard-response","trial_index":81,"time_elapsed":98806,"internal_node_id":"0.0-7.0-3.15"},{"rt":null,"trial_type":"image-click","trial_index":82,"time_elapsed":99344,"internal_node_id":"0.0-7.0-0.16"},{"rt":1657,"response":3,"all_choices":["../static/human_exp_images/task_size/15_0.png","../static/human_exp_images/task_size/15_2.png","../static/human_exp_images/task_size/15_1.png","../static/human_exp_images/task_size/15_3.png"],"task":"response","correct_response":3,"shuffled_array":[0,2,1,3],"catch_trial":false,"trial_type":"image-click","trial_index":83,"time_elapsed":101003,"internal_node_id":"0.0-7.0-1.16","mouse_tracking_data":[{"x":1051,"y":482,"t":1,"event":"mousemove"},{"x":1039,"y":482,"t":14,"event":"mousemove"},{"x":1032,"y":482,"t":31,"event":"mousemove"},{"x":1031,"y":482,"t":47,"event":"mousemove"},{"x":1027,"y":482,"t":64,"event":"mousemove"},{"x":1026,"y":482,"t":81,"event":"mousemove"},{"x":1024,"y":482,"t":300,"event":"mousemove"},{"x":1025,"y":482,"t":1277,"event":"mousemove"},{"x":1029,"y":482,"t":1283,"event":"mousemove"},{"x":1031,"y":484,"t":1286,"event":"mousemove"},{"x":1034,"y":489,"t":1292,"event":"mousemove"},{"x":1036,"y":489,"t":1297,"event":"mousemove"},{"x":1039,"y":494,"t":1301,"event":"mousemove"},{"x":1045,"y":503,"t":1318,"event":"mousemove"},{"x":1052,"y":511,"t":1335,"event":"mousemove"},{"x":1059,"y":520,"t":1351,"event":"mousemove"},{"x":1067,"y":530,"t":1367,"event":"mousemove"},{"x":1079,"y":540,"t":1384,"event":"mousemove"},{"x":1090,"y":549,"t":1401,"event":"mousemove"},{"x":1102,"y":557,"t":1418,"event":"mousemove"},{"x":1105,"y":561,"t":1434,"event":"mousemove"},{"x":1110,"y":564,"t":1451,"event":"mousemove"},{"x":1110,"y":566,"t":1468,"event":"mousemove"},{"x":1112,"y":568,"t":1485,"event":"mousemove"},{"x":1112,"y":569,"t":1508,"event":"mousemove"},{"x":1112,"y":571,"t":1546,"event":"mousemove"}],"mouse_tracking_targets":{},"correct":true},{"rt":1428,"stimulus":"<p>How confident are you about your choice ?</p>","slider_start":50,"response":93,"trial_type":"html-slider-response","trial_index":84,"time_elapsed":102432,"internal_node_id":"0.0-7.0-2.16"},{"rt":null,"stimulus":"\n        <div id='jspsych-image' style='position: relative; width: min(80vw, 80vh); height: min(80vw, 80vh);'>\n                \n                <div style='position: absolute; top: 40%; left: 30%; bottom: 40%; right: 30%;'><h1 style='font-size: 60px; color: green;'>Correct!</h1></div>\n                \n                <div class='jspsych-image' id='jspsych-image-0' data-choice='0' style='top: 0;     left: 0;'><img style=\"width: 100%; height: 100%;\" src='../static/human_exp_images/task_size/15_0.png' class=''></img></div>\n                <div class='jspsych-image' id='jspsych-image-1' data-choice='1' style='top: 0;     right: 0;'><img style=\"width: 100%; height: 100%;\" src='../static/human_exp_images/task_size/15_2.png' class=''></img></div>\n                <div class='jspsych-image' id='jspsych-image-2' data-choice='2' style='bottom: 0;  left: 0;'><img style=\"width: 100%; height: 100%;\" src='../static/human_exp_images/task_size/15_1.png' class=''></img></div>\n                <div class='jspsych-image' id='jspsych-image-3' data-choice='3' style='bottom: 0;  right: 0;'><img style=\"width: 100%; height: 100%;\" src='../static/human_exp_images/task_size/15_3.png' class='correct-choice'></img></div>\n\n        </div>","response":null,"trial_type":"html-keyboard-response","trial_index":85,"time_elapsed":103934,"internal_node_id":"0.0-7.0-3.16"},{"rt":null,"trial_type":"image-click","trial_index":86,"time_elapsed":104674,"internal_node_id":"0.0-7.0-0.17"},{"rt":1339,"response":0,"all_choices":["../static/human_exp_images/task_size/16_3.png","../static/human_exp_images/task_size/16_2.png","../static/human_exp_images/task_size/16_0.png","../static/human_exp_images/task_size/16_1.png"],"task":"response","correct_response":0,"shuffled_array":[3,2,0,1],"catch_trial":false,"trial_type":"image-click","trial_index":87,"time_elapsed":106015,"internal_node_id":"0.0-7.0-1.17","mouse_tracking_data":[{"x":1041,"y":482,"t":1,"event":"mousemove"},{"x":1020,"y":482,"t":13,"event":"mousemove"},{"x":1004,"y":482,"t":31,"event":"mousemove"},{"x":1001,"y":482,"t":47,"event":"mousemove"},{"x":997,"y":482,"t":64,"event":"mousemove"},{"x":997,"y":484,"t":81,"event":"mousemove"},{"x":993,"y":483,"t":678,"event":"mousemove"},{"x":954,"y":437,"t":695,"event":"mousemove"},{"x":898,"y":391,"t":712,"event":"mousemove"},{"x":830,"y":341,"t":728,"event":"mousemove"},{"x":778,"y":307,"t":745,"event":"mousemove"},{"x":704,"y":259,"t":761,"event":"mousemove"},{"x":684,"y":246,"t":778,"event":"mousemove"},{"x":657,"y":226,"t":794,"event":"mousemove"},{"x":647,"y":219,"t":811,"event":"mousemove"},{"x":642,"y":213,"t":829,"event":"mousemove"}],"mouse_tracking_targets":{},"correct":true},{"rt":1272,"stimulus":"<p>How confident are you about your choice ?</p>","slider_start":50,"response":92,"trial_type":"html-slider-response","trial_index":88,"time_elapsed":107288,"internal_node_id":"0.0-7.0-2.17"},{"rt":null,"stimulus":"\n        <div id='jspsych-image' style='position: relative; width: min(80vw, 80vh); height: min(80vw, 80vh);'>\n                \n                <div style='position: absolute; top: 40%; left: 30%; bottom: 40%; right: 30%;'><h1 style='font-size: 60px; color: green;'>Correct!</h1></div>\n                \n                <div class='jspsych-image' id='jspsych-image-0' data-choice='0' style='top: 0;     left: 0;'><img style=\"width: 100%; height: 100%;\" src='../static/human_exp_images/task_size/16_3.png' class='correct-choice'></img></div>\n                <div class='jspsych-image' id='jspsych-image-1' data-choice='1' style='top: 0;     right: 0;'><img style=\"width: 100%; height: 100%;\" src='../static/human_exp_images/task_size/16_2.png' class=''></img></div>\n                <div class='jspsych-image' id='jspsych-image-2' data-choice='2' style='bottom: 0;  left: 0;'><img style=\"width: 100%; height: 100%;\" src='../static/human_exp_images/task_size/16_0.png' class=''></img></div>\n                <div class='jspsych-image' id='jspsych-image-3' data-choice='3' style='bottom: 0;  right: 0;'><img style=\"width: 100%; height: 100%;\" src='../static/human_exp_images/task_size/16_1.png' class=''></img></div>\n\n        </div>","response":null,"trial_type":"html-keyboard-response","trial_index":89,"time_elapsed":108792,"internal_node_id":"0.0-7.0-3.17"},{"rt":null,"trial_type":"image-click","trial_index":90,"time_elapsed":114157,"internal_node_id":"0.0-7.0-0.18"},{"rt":1200,"response":1,"all_choices":["../static/human_exp_images/task_size/17_1.png","../static/human_exp_images/task_size/17_3.png","../static/human_exp_images/task_size/17_2.png","../static/human_exp_images/task_size/17_0.png"],"task":"response","correct_response":1,"shuffled_array":[1,3,2,0],"catch_trial":false,"trial_type":"image-click","trial_index":91,"time_elapsed":115358,"internal_node_id":"0.0-7.0-1.18","mouse_tracking_data":[{"x":1004,"y":464,"t":1,"event":"mousemove"},{"x":943,"y":457,"t":14,"event":"mousemove"},{"x":906,"y":445,"t":32,"event":"mousemove"},{"x":888,"y":438,"t":47,"event":"mousemove"},{"x":879,"y":437,"t":64,"event":"mousemove"},{"x":874,"y":433,"t":81,"event":"mousemove"},{"x":872,"y":430,"t":98,"event":"mousemove"},{"x":871,"y":430,"t":209,"event":"mousemove"},{"x":872,"y":430,"t":540,"event":"mousemove"},{"x":877,"y":430,"t":546,"event":"mousemove"},{"x":881,"y":428,"t":550,"event":"mousemove"},{"x":888,"y":423,"t":556,"event":"mousemove"},{"x":893,"y":421,"t":560,"event":"mousemove"},{"x":904,"y":413,"t":565,"event":"mousemove"},{"x":946,"y":382,"t":581,"event":"mousemove"},{"x":1004,"y":337,"t":598,"event":"mousemove"},{"x":1045,"y":308,"t":614,"event":"mousemove"},{"x":1072,"y":298,"t":631,"event":"mousemove"},{"x":1079,"y":295,"t":647,"event":"mousemove"},{"x":1133,"y":282,"t":665,"event":"mousemove"},{"x":1143,"y":278,"t":681,"event":"mousemove"},{"x":1162,"y":275,"t":698,"event":"mousemove"},{"x":1192,"y":266,"t":714,"event":"mousemove"}],"mouse_tracking_targets":{},"correct":true},{"rt":990,"stimulus":"<p>How confident are you about your choice ?</p>","slider_start":50,"response":95,"trial_type":"html-slider-response","trial_index":92,"time_elapsed":116349,"internal_node_id":"0.0-7.0-2.18"},{"rt":null,"stimulus":"\n        <div id='jspsych-image' style='position: relative; width: min(80vw, 80vh); height: min(80vw, 80vh);'>\n                \n                <div style='position: absolute; top: 40%; left: 30%; bottom: 40%; right: 30%;'><h1 style='font-size: 60px; color: green;'>Correct!</h1></div>\n                \n                <div class='jspsych-image' id='jspsych-image-0' data-choice='0' style='top: 0;     left: 0;'><img style=\"width: 100%; height: 100%;\" src='../static/human_exp_images/task_size/17_1.png' class=''></img></div>\n                <div class='jspsych-image' id='jspsych-image-1' data-choice='1' style='top: 0;     right: 0;'><img style=\"width: 100%; height: 100%;\" src='../static/human_exp_images/task_size/17_3.png' class='correct-choice'></img></div>\n                <div class='jspsych-image' id='jspsych-image-2' data-choice='2' style='bottom: 0;  left: 0;'><img style=\"width: 100%; height: 100%;\" src='../static/human_exp_images/task_size/17_2.png' class=''></img></div>\n                <div class='jspsych-image' id='jspsych-image-3' data-choice='3' style='bottom: 0;  right: 0;'><img style=\"width: 100%; height: 100%;\" src='../static/human_exp_images/task_size/17_0.png' class=''></img></div>\n\n        </div>","response":null,"trial_type":"html-keyboard-response","trial_index":93,"time_elapsed":117851,"internal_node_id":"0.0-7.0-3.18"},{"rt":null,"trial_type":"image-click","trial_index":94,"time_elapsed":118449,"internal_node_id":"0.0-7.0-0.19"},{"rt":933,"response":1,"all_choices":["../static/human_exp_images/task_size/18_2.png","../static/human_exp_images/task_size/18_3.png","../static/human_exp_images/task_size/18_1.png","../static/human_exp_images/task_size/18_0.png"],"task":"response","correct_response":1,"shuffled_array":[2,3,1,0],"catch_trial":false,"trial_type":"image-click","trial_index":95,"time_elapsed":119383,"internal_node_id":"0.0-7.0-1.19","mouse_tracking_data":[{"x":1048,"y":481,"t":1,"event":"mousemove"},{"x":1043,"y":481,"t":16,"event":"mousemove"},{"x":1035,"y":481,"t":33,"event":"mousemove"},{"x":1029,"y":481,"t":50,"event":"mousemove"},{"x":1024,"y":481,"t":67,"event":"mousemove"},{"x":1021,"y":481,"t":83,"event":"mousemove"},{"x":1019,"y":481,"t":100,"event":"mousemove"},{"x":1019,"y":479,"t":575,"event":"mousemove"},{"x":1019,"y":476,"t":585,"event":"mousemove"},{"x":1019,"y":467,"t":601,"event":"mousemove"},{"x":1033,"y":447,"t":619,"event":"mousemove"},{"x":1071,"y":409,"t":634,"event":"mousemove"},{"x":1106,"y":377,"t":652,"event":"mousemove"},{"x":1130,"y":350,"t":668,"event":"mousemove"},{"x":1148,"y":333,"t":684,"event":"mousemove"},{"x":1159,"y":319,"t":702,"event":"mousemove"},{"x":1179,"y":296,"t":718,"event":"mousemove"},{"x":1191,"y":280,"t":734,"event":"mousemove"},{"x":1200,"y":270,"t":750,"event":"mousemove"},{"x":1203,"y":265,"t":768,"event":"mousemove"},{"x":1205,"y":263,"t":785,"event":"mousemove"},{"x":1205,"y":261,"t":801,"event":"mousemove"},{"x":1206,"y":261,"t":819,"event":"mousemove"}],"mouse_tracking_targets":{},"correct":true},{"rt":1408,"stimulus":"<p>How confident are you about your choice ?</p>","slider_start":50,"response":98,"trial_type":"html-slider-response","trial_index":96,"time_elapsed":120792,"internal_node_id":"0.0-7.0-2.19"},{"rt":null,"stimulus":"\n        <div id='jspsych-image' style='position: relative; width: min(80vw, 80vh); height: min(80vw, 80vh);'>\n                \n                <div style='position: absolute; top: 40%; left: 30%; bottom: 40%; right: 30%;'><h1 style='font-size: 60px; color: green;'>Correct!</h1></div>\n                \n                <div class='jspsych-image' id='jspsych-image-0' data-choice='0' style='top: 0;     left: 0;'><img style=\"width: 100%; height: 100%;\" src='../static/human_exp_images/task_size/18_2.png' class=''></img></div>\n                <div class='jspsych-image' id='jspsych-image-1' data-choice='1' style='top: 0;     right: 0;'><img style=\"width: 100%; height: 100%;\" src='../static/human_exp_images/task_size/18_3.png' class='correct-choice'></img></div>\n                <div class='jspsych-image' id='jspsych-image-2' data-choice='2' style='bottom: 0;  left: 0;'><img style=\"width: 100%; height: 100%;\" src='../static/human_exp_images/task_size/18_1.png' class=''></img></div>\n                <div class='jspsych-image' id='jspsych-image-3' data-choice='3' style='bottom: 0;  right: 0;'><img style=\"width: 100%; height: 100%;\" src='../static/human_exp_images/task_size/18_0.png' class=''></img></div>\n\n        </div>","response":null,"trial_type":"html-keyboard-response","trial_index":97,"time_elapsed":122294,"internal_node_id":"0.0-7.0-3.19"},{"rt":null,"trial_type":"image-click","trial_index":98,"time_elapsed":123002,"internal_node_id":"0.0-7.0-0.20"},{"rt":1644,"response":3,"all_choices":["../static/human_exp_images/task_size/19_0.png","../static/human_exp_images/task_size/19_2.png","../static/human_exp_images/task_size/19_1.png","../static/human_exp_images/task_size/19_3.png"],"task":"response","correct_response":3,"shuffled_array":[0,2,1,3],"catch_trial":false,"trial_type":"image-click","trial_index":99,"time_elapsed":124649,"internal_node_id":"0.0-7.0-1.20","mouse_tracking_data":[{"x":1034,"y":472,"t":1,"event":"mousemove"},{"x":1013,"y":472,"t":14,"event":"mousemove"},{"x":1005,"y":472,"t":31,"event":"mousemove"},{"x":1000,"y":472,"t":47,"event":"mousemove"},{"x":996,"y":472,"t":64,"event":"mousemove"},{"x":994,"y":472,"t":81,"event":"mousemove"},{"x":999,"y":472,"t":379,"event":"mousemove"},{"x":1001,"y":472,"t":381,"event":"mousemove"},{"x":1008,"y":472,"t":387,"event":"mousemove"},{"x":1009,"y":472,"t":392,"event":"mousemove"},{"x":1016,"y":468,"t":397,"event":"mousemove"},{"x":1043,"y":453,"t":412,"event":"mousemove"},{"x":1062,"y":438,"t":430,"event":"mousemove"},{"x":1073,"y":429,"t":445,"event":"mousemove"},{"x":1078,"y":426,"t":463,"event":"mousemove"},{"x":1078,"y":424,"t":479,"event":"mousemove"},{"x":1080,"y":424,"t":514,"event":"mousemove"},{"x":1081,"y":424,"t":765,"event":"mousemove"},{"x":1083,"y":424,"t":769,"event":"mousemove"},{"x":1085,"y":424,"t":786,"event":"mousemove"},{"x":1087,"y":424,"t":788,"event":"mousemove"},{"x":1088,"y":424,"t":795,"event":"mousemove"},{"x":1092,"y":424,"t":807,"event":"mousemove"},{"x":1093,"y":424,"t":811,"event":"mousemove"},{"x":1099,"y":424,"t":815,"event":"mousemove"},{"x":1109,"y":432,"t":831,"event":"mousemove"},{"x":1125,"y":454,"t":848,"event":"mousemove"},{"x":1139,"y":472,"t":865,"event":"mousemove"},{"x":1144,"y":481,"t":882,"event":"mousemove"},{"x":1149,"y":491,"t":898,"event":"mousemove"},{"x":1152,"y":496,"t":915,"event":"mousemove"},{"x":1158,"y":501,"t":932,"event":"mousemove"},{"x":1159,"y":506,"t":948,"event":"mousemove"},{"x":1161,"y":510,"t":965,"event":"mousemove"},{"x":1161,"y":511,"t":982,"event":"mousemove"},{"x":1161,"y":513,"t":1008,"event":"mousemove"},{"x":1163,"y":515,"t":1016,"event":"mousemove"},{"x":1163,"y":517,"t":1020,"event":"mousemove"},{"x":1164,"y":518,"t":1025,"event":"mousemove"},{"x":1166,"y":523,"t":1042,"event":"mousemove"},{"x":1168,"y":529,"t":1059,"event":"mousemove"},{"x":1170,"y":534,"t":1075,"event":"mousemove"},{"x":1170,"y":535,"t":1092,"event":"mousemove"},{"x":1170,"y":537,"t":1109,"event":"mousemove"},{"x":1170,"y":539,"t":1126,"event":"mousemove"},{"x":1170,"y":541,"t":1142,"event":"mousemove"},{"x":1171,"y":544,"t":1159,"event":"mousemove"},{"x":1173,"y":547,"t":1176,"event":"mousemove"},{"x":1175,"y":549,"t":1192,"event":"mousemove"},{"x":1176,"y":558,"t":1227,"event":"mousemove"},{"x":1178,"y":559,"t":1232,"event":"mousemove"},{"x":1178,"y":561,"t":1241,"event":"mousemove"},{"x":1180,"y":564,"t":1249,"event":"mousemove"},{"x":1180,"y":566,"t":1253,"event":"mousemove"},{"x":1180,"y":570,"t":1264,"event":"mousemove"},{"x":1183,"y":578,"t":1271,"event":"mousemove"},{"x":1187,"y":590,"t":1289,"event":"mousemove"},{"x":1188,"y":599,"t":1305,"event":"mousemove"},{"x":1192,"y":612,"t":1322,"event":"mousemove"},{"x":1194,"y":620,"t":1338,"event":"mousemove"},{"x":1195,"y":627,"t":1355,"event":"mousemove"},{"x":1195,"y":629,"t":1372,"event":"mousemove"},{"x":1195,"y":630,"t":1388,"event":"mousemove"},{"x":1195,"y":632,"t":1498,"event":"mousemove"}],"mouse_tracking_targets":{},"correct":true},{"rt":1094,"stimulus":"<p>How confident are you about your choice ?</p>","slider_start":50,"response":99,"trial_type":"html-slider-response","trial_index":100,"time_elapsed":125744,"internal_node_id":"0.0-7.0-2.20"},{"rt":null,"stimulus":"\n        <div id='jspsych-image' style='position: relative; width: min(80vw, 80vh); height: min(80vw, 80vh);'>\n                \n                <div style='position: absolute; top: 40%; left: 30%; bottom: 40%; right: 30%;'><h1 style='font-size: 60px; color: green;'>Correct!</h1></div>\n                \n                <div class='jspsych-image' id='jspsych-image-0' data-choice='0' style='top: 0;     left: 0;'><img style=\"width: 100%; height: 100%;\" src='../static/human_exp_images/task_size/19_0.png' class=''></img></div>\n                <div class='jspsych-image' id='jspsych-image-1' data-choice='1' style='top: 0;     right: 0;'><img style=\"width: 100%; height: 100%;\" src='../static/human_exp_images/task_size/19_2.png' class=''></img></div>\n                <div class='jspsych-image' id='jspsych-image-2' data-choice='2' style='bottom: 0;  left: 0;'><img style=\"width: 100%; height: 100%;\" src='../static/human_exp_images/task_size/19_1.png' class=''></img></div>\n                <div class='jspsych-image' id='jspsych-image-3' data-choice='3' style='bottom: 0;  right: 0;'><img style=\"width: 100%; height: 100%;\" src='../static/human_exp_images/task_size/19_3.png' class='correct-choice'></img></div>\n\n        </div>","response":null,"trial_type":"html-keyboard-response","trial_index":101,"time_elapsed":127247,"internal_node_id":"0.0-7.0-3.20"}]