[{"rt":null,"trial_type":"image-click","trial_index":3,"time_elapsed":4266,"internal_node_id":"0.0-3.0-0.0"},{"rt":931,"response":1,"all_choices":["../static/human_exp_images/practice_img/00_0.png","../static/human_exp_images/practice_img/00_3.png","../static/human_exp_images/practice_img/00_1.png","../static/human_exp_images/practice_img/00_2.png"],"task":"response","correct_response":1,"shuffled_array":[0,3,1,2],"catch_trial":false,"trial_type":"image-click","trial_index":4,"time_elapsed":5200,"internal_node_id":"0.0-3.0-1.0","mouse_tracking_data":[{"x":1045,"y":392,"t":1,"event":"mousemove"},{"x":1031,"y":403,"t":13,"event":"mousemove"},{"x":1019,"y":410,"t":30,"event":"mousemove"},{"x":1009,"y":417,"t":47,"event":"mousemove"},{"x":1003,"y":422,"t":63,"event":"mousemove"},{"x":1002,"y":424,"t":80,"event":"mousemove"},{"x":1002,"y":425,"t":97,"event":"mousemove"},{"x":1002,"y":427,"t":114,"event":"mousemove"},{"x":1000,"y":427,"t":272,"event":"mousemove"},{"x":1000,"y":424,"t":646,"event":"mousemove"},{"x":1033,"y":389,"t":662,"event":"mousemove"},{"x":1077,"y":338,"t":680,"event":"mousemove"},{"x":1127,"y":278,"t":695,"event":"mousemove"},{"x":1179,"y":223,"t":713,"event":"mousemove"},{"x":1206,"y":198,"t":729,"event":"mousemove"},{"x":1214,"y":192,"t":746,"event":"mousemove"},{"x":1215,"y":191,"t":762,"event":"mousemove"},{"x":1217,"y":191,"t":779,"event":"mousemove"}],"mouse_tracking_targets":{},"correct":true},{"rt":1045,"stimulus":"<p>How confident are you about your choice ?</p>","slider_start":50,"response":90,"trial_type":"html-slider-response","trial_index":5,"time_elapsed":6249,"internal_node_id":"0.0-3.0-2.0"},{"rt":null,"stimulus":"\n        <div id='jspsych-image' style='position: relative; width: min(80vw, 80vh); height: min(80vw, 80vh);'>\n                \n                <div style='position: absolute; top: 40%; left: 30%; bottom: 40%; right: 30%;'><h1 style='font-size: 60px; color: green;'>Correct!</h1></div>\n                \n                <div class='jspsych-image' id='jspsych-image-0' data-choice='0' style='top: 0;     left: 0;'><img style=\"width: 100%; height: 100%;\" src='../static/human_exp_images/practice_img/00_0.png' class=''></img></div>\n                <div class='jspsych-image' id='jspsych-image-1' data-choice='1' style='top: 0;     right: 0;'><img style=\"width: 100%; height: 100%;\" src='../static/human_exp_images/practice_img/00_3.png' class='correct-choice'></img></div>\n                <div class='jspsych-image' id='jspsych-image-2' data-choice='2' style='bottom: 0;  left: 0;'><img style=\"width: 100%; height: 100%;\" src='../static/human_exp_images/practice_img/00_1.png' class=''></img></div>\n                <div class='jspsych-image' id='jspsych-image-3' data-choice='3' style='bottom: 0;  right: 0;'><img style=\"width: 100%; height: 100%;\" src='../static/human_exp_images/practice_img/00_2.png' class=''></img></div>\n\n        </div>","response":null,"trial_type":"html-keyboard-response","trial_index":6,"time_elapsed":7753,"internal_node_id":"0.0-3.0-3.0"},{"rt":null,"trial_type":"image-click","trial_index":7,"time_elapsed":7757,"internal_node_id":"0.0-3.0-0.1"},{"rt":965,"response":1,"all_choices":["../static/human_exp_images/practice_img/01_2.png","../static/human_exp_images/practice_img/01_3.png","../static/human_exp_images/practice_img/01_1.png","../static/human_exp_images/practice_img/01_0.png"],"task":"response","correct_response":1,"shuffled_array":[2,3,1,0],"catch_trial":false,"trial_type":"image-click","trial_index":8,"time_elapsed":8728,"internal_node_id":"0.0-3.0-1.1","mouse_tracking_data":[{"x":969,"y":513,"t":502,"event":"mousemove"},{"x":969,"y":511,"t":505,"event":"mousemove"},{"x":969,"y":508,"t":510,"event":"mousemove"},{"x":969,"y":503,"t":520,"event":"mousemove"},{"x":969,"y":489,"t":536,"event":"mousemove"},{"x":969,"y":469,"t":553,"event":"mousemove"},{"x":969,"y":443,"t":570,"event":"mousemove"},{"x":973,"y":420,"t":587,"event":"mousemove"},{"x":992,"y":377,"t":602,"event":"mousemove"},{"x":1014,"y":343,"t":620,"event":"mousemove"},{"x":1033,"y":325,"t":637,"event":"mousemove"},{"x":1055,"y":308,"t":653,"event":"mousemove"},{"x":1071,"y":300,"t":671,"event":"mousemove"},{"x":1078,"y":296,"t":686,"event":"mousemove"},{"x":1080,"y":296,"t":703,"event":"mousemove"},{"x":1081,"y":296,"t":728,"event":"mousemove"},{"x":1085,"y":295,"t":746,"event":"mousemove"},{"x":1090,"y":293,"t":756,"event":"mousemove"},{"x":1099,"y":288,"t":770,"event":"mousemove"},{"x":1114,"y":283,"t":786,"event":"mousemove"},{"x":1141,"y":277,"t":803,"event":"mousemove"},{"x":1158,"y":274,"t":821,"event":"mousemove"},{"x":1171,"y":274,"t":836,"event":"mousemove"},{"x":1185,"y":274,"t":854,"event":"mousemove"},{"x":1194,"y":274,"t":870,"event":"mousemove"},{"x":1197,"y":274,"t":887,"event":"mousemove"}],"mouse_tracking_targets":{},"correct":true},{"rt":1303,"stimulus":"<p>How confident are you about your choice ?</p>","slider_start":50,"response":100,"trial_type":"html-slider-response","trial_index":9,"time_elapsed":10032,"internal_node_id":"0.0-3.0-2.1"},{"rt":null,"stimulus":"\n        <div id='jspsych-image' style='position: relative; width: min(80vw, 80vh); height: min(80vw, 80vh);'>\n                \n                <div style='position: absolute; top: 40%; left: 30%; bottom: 40%; right: 30%;'><h1 style='font-size: 60px; color: green;'>Correct!</h1></div>\n                \n                <div class='jspsych-image' id='jspsych-image-0' data-choice='0' style='top: 0;     left: 0;'><img style=\"width: 100%; height: 100%;\" src='../static/human_exp_images/practice_img/01_2.png' class=''></img></div>\n                <div class='jspsych-image' id='jspsych-image-1' data-choice='1' style='top: 0;     right: 0;'><img style=\"width: 100%; height: 100%;\" src='../static/human_exp_images/practice_img/01_3.png' class='correct-choice'></img></div>\n                <div class='jspsych-image' id='jspsych-image-2' data-choice='2' style='bottom: 0;  left: 0;'><img style=\"width: 100%; height: 100%;\" src='../static/human_exp_images/practice_img/01_1.png' class=''></img></div>\n                <div class='jspsych-image' id='jspsych-image-3' data-choice='3' style='bottom: 0;  right: 0;'><img style=\"width: 100%; height: 100%;\" src='../static/human_exp_images/practice_img/01_0.png' class=''></img></div>\n\n        </div>","response":null,"trial_type":"html-keyboard-response","trial_index":10,"time_elapsed":11537,"internal_node_id":"0.0-3.0-3.1"},{"rt":null,"trial_type":"image-click","trial_index":11,"time_elapsed":11542,"internal_node_id":"0.0-3.0-0.2"},{"rt":1137,"response":0,"all_choices":["../static/human_exp_images/practice_img/02_3.png","../static/human_exp_images/practice_img/02_2.png","../static/human_exp_images/practice_img/02_0.png","../static/human_exp_images/practice_img/02_1.png"],"task":"response","correct_response":0,"shuffled_array":[3,2,0,1],"catch_trial":false,"trial_type":"image-click","trial_index":12,"time_elapsed":12681,"internal_node_id":"0.0-3.0-1.2","mouse_tracking_data":[{"x":1047,"y":474,"t":625,"event":"mousemove"},{"x":1045,"y":474,"t":642,"event":"mousemove"},{"x":1044,"y":474,"t":643,"event":"mousemove"},{"x":1039,"y":474,"t":652,"event":"mousemove"},{"x":1035,"y":474,"t":653,"event":"mousemove"},{"x":1028,"y":474,"t":661,"event":"mousemove"},{"x":1025,"y":474,"t":663,"event":"mousemove"},{"x":1018,"y":467,"t":669,"event":"mousemove"},{"x":1014,"y":463,"t":674,"event":"mousemove"},{"x":999,"y":453,"t":679,"event":"mousemove"},{"x":989,"y":447,"t":683,"event":"mousemove"},{"x":971,"y":431,"t":687,"event":"mousemove"},{"x":956,"y":421,"t":688,"event":"mousemove"},{"x":925,"y":401,"t":697,"event":"mousemove"},{"x":918,"y":394,"t":699,"event":"mousemove"},{"x":901,"y":380,"t":706,"event":"mousemove"},{"x":895,"y":374,"t":709,"event":"mousemove"},{"x":879,"y":361,"t":715,"event":"mousemove"},{"x":872,"y":358,"t":720,"event":"mousemove"},{"x":864,"y":349,"t":725,"event":"mousemove"},{"x":861,"y":344,"t":726,"event":"mousemove"},{"x":852,"y":335,"t":734,"event":"mousemove"},{"x":849,"y":332,"t":735,"event":"mousemove"},{"x":843,"y":326,"t":753,"event":"mousemove"},{"x":834,"y":315,"t":770,"event":"mousemove"},{"x":828,"y":309,"t":786,"event":"mousemove"},{"x":821,"y":302,"t":804,"event":"mousemove"},{"x":809,"y":293,"t":819,"event":"mousemove"},{"x":796,"y":285,"t":837,"event":"mousemove"},{"x":787,"y":279,"t":854,"event":"mousemove"},{"x":775,"y":274,"t":870,"event":"mousemove"},{"x":770,"y":268,"t":887,"event":"mousemove"},{"x":768,"y":268,"t":904,"event":"mousemove"}],"mouse_tracking_targets":{},"correct":true},{"rt":6861,"stimulus":"<p>How confident are you about your choice ?</p>","slider_start":50,"response":100,"trial_type":"html-slider-response","trial_index":13,"time_elapsed":19544,"internal_node_id":"0.0-3.0-2.2"},{"rt":null,"stimulus":"\n        <div id='jspsych-image' style='position: relative; width: min(80vw, 80vh); height: min(80vw, 80vh);'>\n                \n                <div style='position: absolute; top: 40%; left: 30%; bottom: 40%; right: 30%;'><h1 style='font-size: 60px; color: green;'>Correct!</h1></div>\n                \n                <div class='jspsych-image' id='jspsych-image-0' data-choice='0' style='top: 0;     left: 0;'><img style=\"width: 100%; height: 100%;\" src='../static/human_exp_images/practice_img/02_3.png' class='correct-choice'></img></div>\n                <div class='jspsych-image' id='jspsych-image-1' data-choice='1' style='top: 0;     right: 0;'><img style=\"width: 100%; height: 100%;\" src='../static/human_exp_images/practice_img/02_2.png' class=''></img></div>\n                <div class='jspsych-image' id='jspsych-image-2' data-choice='2' style='bottom: 0;  left: 0;'><img style=\"width: 100%; height: 100%;\" src='../static/human_exp_images/practice_img/02_0.png' class=''></img></div>\n                <div class='jspsych-image' id='jspsych-image-3' data-choice='3' style='bottom: 0;  right: 0;'><img style=\"width: 100%; height: 100%;\" src='../static/human_exp_images/practice_img/02_1.png' class=''></img></div>\n\n        </div>","response":null,"trial_type":"html-keyboard-response","trial_index":14,"time_elapsed":21048,"internal_node_id":"0.0-3.0-3.2"}]