[{"success":true,"timeout":false,"failed_images":[],"failed_audio":[],"failed_video":[],"trial_type":"preload","trial_index":0,"time_elapsed":98,"internal_node_id":"0.0-0.0"},{"rt":953,"stimulus":"<p style='font-size: 40px'>Welcome to the experiment.</p><p style='font-size: 30px'>Press any key to begin.</p>","response":" ","trial_type":"html-keyboard-response","trial_index":1,"time_elapsed":1052,"internal_node_id":"0.0-1.0"},{"rt":1598,"stimulus":"\n    <p>In this experiment, 4 images will appear on the screen. 3 out of 4 images were generated with a certain rule while one image (the odd one out) does not respect this rule. Select the odd one out by clicking on the image.</p>\n    <p>Following your choice, you will be asked to rate how confident you were about your choice on a scale from 1 to 100. Then, you will receive feedback on the trial.</p>\n    <p>For each rule you will perform 20 trials. You will be notified at each rule change. </p>\n    <p> Press any button to continue </p>\n    <div style='margin: auto; position: relative; width: 400px; height: 400px;'>\n        <div style='position: absolute; top: 0;     left: 0; '><img src='../static/img/square.png'></img></div>\n        <div style='position: absolute; top: 0;     right: 0;'><img src='../static/img/square.png'></img></div>\n        <div style='position: absolute; bottom: 0;  left: 0; '><img src='../static/img/square.png'></img></div>\n        <div style='position: absolute; bottom: 0;  right: 0;'><img src='../static/img/square.png'></img></div>\n    </div>\n","response":" ","trial_type":"html-keyboard-response","trial_index":2,"time_elapsed":2653,"internal_node_id":"0.0-2.0"},{"rt":2162,"stimulus":"<h1 style='font-size: 60px'>New Rule!</h1> <p>Press any key to begin.</p>","response":" ","trial_type":"html-keyboard-response","trial_index":3,"time_elapsed":6818,"internal_node_id":"0.0-3.0"},{"rt":null,"trial_type":"image-click","trial_index":4,"time_elapsed":6823,"internal_node_id":"0.0-4.0-0.0"},{"rt":1213,"response":3,"all_choices":["../static/human_exp_images/task_pos/00_1.png","../static/human_exp_images/task_pos/00_0.png","../static/human_exp_images/task_pos/00_2.png","../static/human_exp_images/task_pos/00_3.png"],"task":"response","correct_response":3,"shuffled_array":[1,0,2,3],"trial_type":"image-click","trial_index":5,"time_elapsed":8038,"internal_node_id":"0.0-4.0-1.0","mouse_tracking_data":[{"x":952,"y":539,"t":501,"event":"mousemove"},{"x":954,"y":541,"t":503,"event":"mousemove"},{"x":960,"y":543,"t":511,"event":"mousemove"},{"x":963,"y":545,"t":514,"event":"mousemove"},{"x":968,"y":548,"t":520,"event":"mousemove"},{"x":972,"y":548,"t":524,"event":"mousemove"},{"x":978,"y":550,"t":530,"event":"mousemove"},{"x":987,"y":553,"t":532,"event":"mousemove"},{"x":1014,"y":561,"t":548,"event":"mousemove"},{"x":1031,"y":565,"t":565,"event":"mousemove"},{"x":1051,"y":573,"t":581,"event":"mousemove"},{"x":1071,"y":581,"t":598,"event":"mousemove"},{"x":1077,"y":585,"t":614,"event":"mousemove"},{"x":1098,"y":599,"t":631,"event":"mousemove"},{"x":1108,"y":609,"t":647,"event":"mousemove"},{"x":1117,"y":617,"t":665,"event":"mousemove"},{"x":1122,"y":624,"t":682,"event":"mousemove"},{"x":1134,"y":633,"t":698,"event":"mousemove"},{"x":1144,"y":640,"t":715,"event":"mousemove"},{"x":1153,"y":645,"t":731,"event":"mousemove"}],"mouse_tracking_targets":{},"correct":true},{"rt":2624,"stimulus":"<p>How confident are you about your choice ?</p>","slider_start":50,"response":75,"trial_type":"html-slider-response","trial_index":6,"time_elapsed":10666,"internal_node_id":"0.0-4.0-2.0"},{"rt":null,"stimulus":"\n        <div id='jspsych-image' style='position: relative; width: min(80vw, 80vh); height: min(80vw, 80vh);'>\n                \n                <div style='position: absolute; top: 40%; left: 30%; bottom: 40%; right: 30%;'><h1 style='font-size: 60px; color: green;'>Correct!</h1></div>\n                \n                <div class='jspsych-image' id='jspsych-image-0' data-choice='0' style='top: 0;     left: 0;'><img style=\"max-width: 100%; max-height: 100%;\" src='../static/human_exp_images/task_pos/00_1.png' class=''></img></div>\n                <div class='jspsych-image' id='jspsych-image-1' data-choice='1' style='top: 0;     right: 0;'><img style=\"max-width: 100%; max-height: 100%;\" src='../static/human_exp_images/task_pos/00_0.png' class=''></img></div>\n                <div class='jspsych-image' id='jspsych-image-2' data-choice='2' style='bottom: 0;  left: 0;'><img style=\"max-width: 100%; max-height: 100%;\" src='../static/human_exp_images/task_pos/00_2.png' class=''></img></div>\n                <div class='jspsych-image' id='jspsych-image-3' data-choice='3' style='bottom: 0;  right: 0;'><img style=\"max-width: 100%; max-height: 100%;\" src='../static/human_exp_images/task_pos/00_3.png' class='correct-choice'></img></div>\n\n        </div>","response":null,"trial_type":"html-keyboard-response","trial_index":7,"time_elapsed":12170,"internal_node_id":"0.0-4.0-3.0"},{"rt":null,"trial_type":"image-click","trial_index":8,"time_elapsed":12606,"internal_node_id":"0.0-4.0-0.1"},{"rt":1568,"response":1,"all_choices":["../static/human_exp_images/task_pos/01_2.png","../static/human_exp_images/task_pos/01_3.png","../static/human_exp_images/task_pos/01_1.png","../static/human_exp_images/task_pos/01_0.png"],"task":"response","correct_response":1,"shuffled_array":[2,3,1,0],"trial_type":"image-click","trial_index":9,"time_elapsed":14178,"internal_node_id":"0.0-4.0-1.1","mouse_tracking_data":[{"x":992,"y":517,"t":1,"event":"mousemove"},{"x":992,"y":492,"t":12,"event":"mousemove"},{"x":992,"y":485,"t":28,"event":"mousemove"},{"x":992,"y":483,"t":45,"event":"mousemove"},{"x":992,"y":480,"t":733,"event":"mousemove"},{"x":995,"y":473,"t":740,"event":"mousemove"},{"x":1000,"y":469,"t":740,"event":"mousemove"},{"x":1007,"y":455,"t":756,"event":"mousemove"},{"x":1021,"y":430,"t":774,"event":"mousemove"},{"x":1033,"y":400,"t":789,"event":"mousemove"},{"x":1044,"y":380,"t":806,"event":"mousemove"},{"x":1054,"y":361,"t":824,"event":"mousemove"},{"x":1058,"y":354,"t":840,"event":"mousemove"},{"x":1065,"y":344,"t":857,"event":"mousemove"},{"x":1070,"y":334,"t":874,"event":"mousemove"},{"x":1077,"y":322,"t":890,"event":"mousemove"},{"x":1083,"y":306,"t":906,"event":"mousemove"},{"x":1095,"y":291,"t":924,"event":"mousemove"},{"x":1103,"y":278,"t":940,"event":"mousemove"},{"x":1112,"y":266,"t":957,"event":"mousemove"},{"x":1117,"y":257,"t":973,"event":"mousemove"},{"x":1124,"y":249,"t":990,"event":"mousemove"},{"x":1130,"y":242,"t":1007,"event":"mousemove"},{"x":1139,"y":232,"t":1024,"event":"mousemove"},{"x":1144,"y":225,"t":1040,"event":"mousemove"},{"x":1159,"y":198,"t":1056,"event":"mousemove"},{"x":1177,"y":175,"t":1073,"event":"mousemove"},{"x":1186,"y":160,"t":1089,"event":"mousemove"},{"x":1191,"y":157,"t":1106,"event":"mousemove"}],"mouse_tracking_targets":{},"correct":true},{"rt":2863,"stimulus":"<p>How confident are you about your choice ?</p>","slider_start":50,"response":71,"trial_type":"html-slider-response","trial_index":10,"time_elapsed":17042,"internal_node_id":"0.0-4.0-2.1"},{"rt":null,"stimulus":"\n        <div id='jspsych-image' style='position: relative; width: min(80vw, 80vh); height: min(80vw, 80vh);'>\n                \n                <div style='position: absolute; top: 40%; left: 30%; bottom: 40%; right: 30%;'><h1 style='font-size: 60px; color: green;'>Correct!</h1></div>\n                \n                <div class='jspsych-image' id='jspsych-image-0' data-choice='0' style='top: 0;     left: 0;'><img style=\"max-width: 100%; max-height: 100%;\" src='../static/human_exp_images/task_pos/01_2.png' class=''></img></div>\n                <div class='jspsych-image' id='jspsych-image-1' data-choice='1' style='top: 0;     right: 0;'><img style=\"max-width: 100%; max-height: 100%;\" src='../static/human_exp_images/task_pos/01_3.png' class='correct-choice'></img></div>\n                <div class='jspsych-image' id='jspsych-image-2' data-choice='2' style='bottom: 0;  left: 0;'><img style=\"max-width: 100%; max-height: 100%;\" src='../static/human_exp_images/task_pos/01_1.png' class=''></img></div>\n                <div class='jspsych-image' id='jspsych-image-3' data-choice='3' style='bottom: 0;  right: 0;'><img style=\"max-width: 100%; max-height: 100%;\" src='../static/human_exp_images/task_pos/01_0.png' class=''></img></div>\n\n        </div>","response":null,"trial_type":"html-keyboard-response","trial_index":11,"time_elapsed":18546,"internal_node_id":"0.0-4.0-3.1"},{"rt":null,"trial_type":"image-click","trial_index":12,"time_elapsed":18908,"internal_node_id":"0.0-4.0-0.2"},{"rt":1897,"response":0,"all_choices":["../static/human_exp_images/task_pos/02_1.png","../static/human_exp_images/task_pos/02_3.png","../static/human_exp_images/task_pos/02_2.png","../static/human_exp_images/task_pos/02_0.png"],"task":"response","correct_response":1,"shuffled_array":[1,3,2,0],"trial_type":"image-click","trial_index":13,"time_elapsed":20807,"internal_node_id":"0.0-4.0-1.2","mouse_tracking_data":[{"x":1040,"y":416,"t":1,"event":"mousemove"},{"x":1023,"y":416,"t":13,"event":"mousemove"},{"x":1008,"y":416,"t":30,"event":"mousemove"},{"x":991,"y":416,"t":47,"event":"mousemove"},{"x":980,"y":416,"t":63,"event":"mousemove"},{"x":968,"y":416,"t":80,"event":"mousemove"},{"x":961,"y":419,"t":97,"event":"mousemove"},{"x":958,"y":421,"t":113,"event":"mousemove"},{"x":958,"y":423,"t":130,"event":"mousemove"},{"x":959,"y":423,"t":659,"event":"mousemove"},{"x":959,"y":417,"t":740,"event":"mousemove"},{"x":959,"y":410,"t":741,"event":"mousemove"},{"x":950,"y":372,"t":757,"event":"mousemove"},{"x":929,"y":324,"t":775,"event":"mousemove"},{"x":911,"y":292,"t":790,"event":"mousemove"},{"x":903,"y":278,"t":807,"event":"mousemove"},{"x":900,"y":273,"t":823,"event":"mousemove"},{"x":896,"y":271,"t":841,"event":"mousemove"},{"x":895,"y":271,"t":861,"event":"mousemove"},{"x":893,"y":269,"t":874,"event":"mousemove"},{"x":891,"y":268,"t":901,"event":"mousemove"},{"x":891,"y":266,"t":905,"event":"mousemove"},{"x":888,"y":263,"t":910,"event":"mousemove"},{"x":886,"y":261,"t":912,"event":"mousemove"},{"x":877,"y":250,"t":928,"event":"mousemove"},{"x":872,"y":245,"t":945,"event":"mousemove"},{"x":868,"y":243,"t":962,"event":"mousemove"},{"x":867,"y":241,"t":979,"event":"mousemove"},{"x":863,"y":240,"t":995,"event":"mousemove"},{"x":855,"y":235,"t":1012,"event":"mousemove"},{"x":839,"y":226,"t":1030,"event":"mousemove"},{"x":831,"y":221,"t":1045,"event":"mousemove"},{"x":819,"y":214,"t":1062,"event":"mousemove"},{"x":807,"y":209,"t":1078,"event":"mousemove"},{"x":797,"y":203,"t":1095,"event":"mousemove"},{"x":787,"y":200,"t":1111,"event":"mousemove"},{"x":780,"y":198,"t":1129,"event":"mousemove"},{"x":777,"y":197,"t":1145,"event":"mousemove"},{"x":772,"y":197,"t":1163,"event":"mousemove"},{"x":768,"y":197,"t":1178,"event":"mousemove"},{"x":766,"y":197,"t":1201,"event":"mousemove"},{"x":765,"y":197,"t":1337,"event":"mousemove"}],"mouse_tracking_targets":{},"correct":false},{"rt":2115,"stimulus":"<p>How confident are you about your choice ?</p>","slider_start":50,"response":76,"trial_type":"html-slider-response","trial_index":14,"time_elapsed":22925,"internal_node_id":"0.0-4.0-2.2"},{"rt":null,"stimulus":"\n        <div id='jspsych-image' style='position: relative; width: min(80vw, 80vh); height: min(80vw, 80vh);'>\n                \n                <div style='position: absolute; top: 40%; left: 30%; bottom: 40%; right: 30%;'><h1 style='font-size: 60px; color: red'>Wrong</h1></div>\n                \n                <div class='jspsych-image' id='jspsych-image-0' data-choice='0' style='top: 0;     left: 0;'><img style=\"max-width: 100%; max-height: 100%;\" src='../static/human_exp_images/task_pos/02_1.png' class='wrong-choice'></img></div>\n                <div class='jspsych-image' id='jspsych-image-1' data-choice='1' style='top: 0;     right: 0;'><img style=\"max-width: 100%; max-height: 100%;\" src='../static/human_exp_images/task_pos/02_3.png' class='correct-choice'></img></div>\n                <div class='jspsych-image' id='jspsych-image-2' data-choice='2' style='bottom: 0;  left: 0;'><img style=\"max-width: 100%; max-height: 100%;\" src='../static/human_exp_images/task_pos/02_2.png' class=''></img></div>\n                <div class='jspsych-image' id='jspsych-image-3' data-choice='3' style='bottom: 0;  right: 0;'><img style=\"max-width: 100%; max-height: 100%;\" src='../static/human_exp_images/task_pos/02_0.png' class=''></img></div>\n\n        </div>","response":null,"trial_type":"html-keyboard-response","trial_index":15,"time_elapsed":25429,"internal_node_id":"0.0-4.0-3.2"},{"rt":1520,"stimulus":"<p>You responded correctly on 67% of the trials.</p>\n    <p>Your average response time was 1391ms.</p>\n    <p>Press any key to complete the experiment. Thank you!</p>","response":" ","trial_type":"html-keyboard-response","trial_index":16,"time_elapsed":26949,"internal_node_id":"0.0-5.0","interactions":"[]"}]