[{"rt":null,"trial_type":"image-click","trial_index":19,"time_elapsed":19137,"internal_node_id":"0.0-8.0-0.0"},{"rt":2852,"response":0,"all_choices":["../static/human_exp_images/task_rot/00_3.png","../static/human_exp_images/task_rot/00_2.png","../static/human_exp_images/task_rot/00_1.png","../static/human_exp_images/task_rot/00_0.png"],"task":"response","correct_response":0,"shuffled_array":[3,2,1,0],"catch_trial":false,"trial_type":"image-click","trial_index":20,"time_elapsed":21991,"internal_node_id":"0.0-8.0-1.0","mouse_tracking_data":[{"x":1044,"y":479,"t":1974,"event":"mousemove"},{"x":1044,"y":477,"t":1983,"event":"mousemove"},{"x":1044,"y":474,"t":2120,"event":"mousemove"},{"x":1044,"y":472,"t":2122,"event":"mousemove"},{"x":1042,"y":469,"t":2128,"event":"mousemove"},{"x":1040,"y":467,"t":2133,"event":"mousemove"},{"x":1037,"y":463,"t":2137,"event":"mousemove"},{"x":1033,"y":462,"t":2143,"event":"mousemove"},{"x":1030,"y":458,"t":2147,"event":"mousemove"},{"x":1028,"y":457,"t":2148,"event":"mousemove"},{"x":1021,"y":451,"t":2164,"event":"mousemove"},{"x":1008,"y":438,"t":2181,"event":"mousemove"},{"x":990,"y":425,"t":2198,"event":"mousemove"},{"x":976,"y":416,"t":2215,"event":"mousemove"},{"x":966,"y":410,"t":2231,"event":"mousemove"},{"x":957,"y":404,"t":2247,"event":"mousemove"},{"x":952,"y":401,"t":2264,"event":"mousemove"},{"x":948,"y":401,"t":2281,"event":"mousemove"},{"x":948,"y":404,"t":2384,"event":"mousemove"},{"x":948,"y":406,"t":2385,"event":"mousemove"},{"x":950,"y":411,"t":2392,"event":"mousemove"},{"x":952,"y":413,"t":2395,"event":"mousemove"},{"x":957,"y":416,"t":2401,"event":"mousemove"},{"x":959,"y":420,"t":2405,"event":"mousemove"},{"x":964,"y":423,"t":2410,"event":"mousemove"},{"x":965,"y":425,"t":2411,"event":"mousemove"},{"x":971,"y":428,"t":2428,"event":"mousemove"},{"x":979,"y":435,"t":2444,"event":"mousemove"},{"x":981,"y":439,"t":2461,"event":"mousemove"},{"x":977,"y":439,"t":2540,"event":"mousemove"},{"x":974,"y":439,"t":2544,"event":"mousemove"},{"x":967,"y":439,"t":2548,"event":"mousemove"},{"x":960,"y":439,"t":2548,"event":"mousemove"},{"x":944,"y":432,"t":2565,"event":"mousemove"},{"x":912,"y":411,"t":2582,"event":"mousemove"},{"x":877,"y":386,"t":2598,"event":"mousemove"},{"x":842,"y":362,"t":2615,"event":"mousemove"},{"x":819,"y":341,"t":2632,"event":"mousemove"},{"x":794,"y":318,"t":2649,"event":"mousemove"},{"x":781,"y":307,"t":2666,"event":"mousemove"},{"x":762,"y":295,"t":2682,"event":"mousemove"},{"x":749,"y":284,"t":2698,"event":"mousemove"},{"x":740,"y":273,"t":2715,"event":"mousemove"},{"x":732,"y":266,"t":2732,"event":"mousemove"},{"x":727,"y":260,"t":2748,"event":"mousemove"},{"x":720,"y":254,"t":2766,"event":"mousemove"},{"x":716,"y":253,"t":2781,"event":"mousemove"}],"mouse_tracking_targets":{},"correct":true},{"rt":1390,"stimulus":"<p>How confident are you about your choice ? (click on the bar)</p>","slider_start":50,"response":94,"trial_type":"html-slider-response","trial_index":21,"time_elapsed":23382,"internal_node_id":"0.0-8.0-2.0"},{"rt":null,"stimulus":"\n        <div id='jspsych-image' style='position: relative; width: min(80vw, 80vh); height: min(80vw, 80vh);'>\n                \n                <div style='position: absolute; top: 40%; left: 30%; bottom: 40%; right: 30%;'><h1 style='font-size: 60px; color: green;'>Correct!</h1></div>\n                \n                <div class='jspsych-image' id='jspsych-image-0' data-choice='0' style='top: 0;     left: 0;'><img style=\"width: 100%; height: 100%;\" src='../static/human_exp_images/task_rot/00_3.png' class='correct-choice'></img></div>\n                <div class='jspsych-image' id='jspsych-image-1' data-choice='1' style='top: 0;     right: 0;'><img style=\"width: 100%; height: 100%;\" src='../static/human_exp_images/task_rot/00_2.png' class=''></img></div>\n                <div class='jspsych-image' id='jspsych-image-2' data-choice='2' style='bottom: 0;  left: 0;'><img style=\"width: 100%; height: 100%;\" src='../static/human_exp_images/task_rot/00_1.png' class=''></img></div>\n                <div class='jspsych-image' id='jspsych-image-3' data-choice='3' style='bottom: 0;  right: 0;'><img style=\"width: 100%; height: 100%;\" src='../static/human_exp_images/task_rot/00_0.png' class=''></img></div>\n\n        </div>","response":null,"trial_type":"html-keyboard-response","trial_index":22,"time_elapsed":24884,"internal_node_id":"0.0-8.0-3.0"},{"rt":null,"trial_type":"image-click","trial_index":23,"time_elapsed":25662,"internal_node_id":"0.0-8.0-0.1"},{"rt":1092,"response":1,"all_choices":["../static/human_exp_images/task_rot/01_0.png","../static/human_exp_images/task_rot/01_3.png","../static/human_exp_images/task_rot/01_1.png","../static/human_exp_images/task_rot/01_2.png"],"task":"response","correct_response":1,"shuffled_array":[0,3,1,2],"catch_trial":false,"trial_type":"image-click","trial_index":24,"time_elapsed":26756,"internal_node_id":"0.0-8.0-1.1","mouse_tracking_data":[{"x":1024,"y":443,"t":1,"event":"mousemove"},{"x":996,"y":427,"t":15,"event":"mousemove"},{"x":982,"y":423,"t":31,"event":"mousemove"},{"x":973,"y":418,"t":48,"event":"mousemove"},{"x":970,"y":418,"t":64,"event":"mousemove"},{"x":970,"y":416,"t":82,"event":"mousemove"},{"x":968,"y":416,"t":99,"event":"mousemove"},{"x":968,"y":415,"t":741,"event":"mousemove"},{"x":968,"y":413,"t":750,"event":"mousemove"},{"x":970,"y":413,"t":754,"event":"mousemove"},{"x":972,"y":411,"t":758,"event":"mousemove"},{"x":973,"y":410,"t":759,"event":"mousemove"},{"x":980,"y":406,"t":776,"event":"mousemove"},{"x":996,"y":396,"t":793,"event":"mousemove"},{"x":1017,"y":380,"t":809,"event":"mousemove"},{"x":1044,"y":361,"t":826,"event":"mousemove"},{"x":1065,"y":349,"t":842,"event":"mousemove"},{"x":1085,"y":333,"t":860,"event":"mousemove"},{"x":1099,"y":324,"t":876,"event":"mousemove"},{"x":1115,"y":314,"t":892,"event":"mousemove"},{"x":1127,"y":305,"t":908,"event":"mousemove"},{"x":1134,"y":300,"t":926,"event":"mousemove"},{"x":1139,"y":297,"t":943,"event":"mousemove"},{"x":1142,"y":297,"t":960,"event":"mousemove"},{"x":1142,"y":295,"t":994,"event":"mousemove"}],"mouse_tracking_targets":{},"correct":true},{"rt":1414,"stimulus":"<p>How confident are you about your choice ? (click on the bar)</p>","slider_start":50,"response":91,"trial_type":"html-slider-response","trial_index":25,"time_elapsed":28172,"internal_node_id":"0.0-8.0-2.1"},{"rt":null,"stimulus":"\n        <div id='jspsych-image' style='position: relative; width: min(80vw, 80vh); height: min(80vw, 80vh);'>\n                \n                <div style='position: absolute; top: 40%; left: 30%; bottom: 40%; right: 30%;'><h1 style='font-size: 60px; color: green;'>Correct!</h1></div>\n                \n                <div class='jspsych-image' id='jspsych-image-0' data-choice='0' style='top: 0;     left: 0;'><img style=\"width: 100%; height: 100%;\" src='../static/human_exp_images/task_rot/01_0.png' class=''></img></div>\n                <div class='jspsych-image' id='jspsych-image-1' data-choice='1' style='top: 0;     right: 0;'><img style=\"width: 100%; height: 100%;\" src='../static/human_exp_images/task_rot/01_3.png' class='correct-choice'></img></div>\n                <div class='jspsych-image' id='jspsych-image-2' data-choice='2' style='bottom: 0;  left: 0;'><img style=\"width: 100%; height: 100%;\" src='../static/human_exp_images/task_rot/01_1.png' class=''></img></div>\n                <div class='jspsych-image' id='jspsych-image-3' data-choice='3' style='bottom: 0;  right: 0;'><img style=\"width: 100%; height: 100%;\" src='../static/human_exp_images/task_rot/01_2.png' class=''></img></div>\n\n        </div>","response":null,"trial_type":"html-keyboard-response","trial_index":26,"time_elapsed":29679,"internal_node_id":"0.0-8.0-3.1"},{"rt":null,"trial_type":"image-click","trial_index":27,"time_elapsed":30132,"internal_node_id":"0.0-8.0-0.2"},{"rt":982,"response":2,"all_choices":["../static/human_exp_images/task_rot/02_1.png","../static/human_exp_images/task_rot/02_2.png","../static/human_exp_images/task_rot/02_0.png","../static/human_exp_images/task_rot/02_3.png"],"task":"response","correct_response":3,"shuffled_array":[1,2,0,3],"catch_trial":false,"trial_type":"image-click","trial_index":28,"time_elapsed":31117,"internal_node_id":"0.0-8.0-1.2","mouse_tracking_data":[{"x":1045,"y":491,"t":0,"event":"mousemove"},{"x":1040,"y":491,"t":15,"event":"mousemove"},{"x":1033,"y":491,"t":31,"event":"mousemove"},{"x":1026,"y":491,"t":48,"event":"mousemove"},{"x":1021,"y":491,"t":65,"event":"mousemove"},{"x":1019,"y":491,"t":82,"event":"mousemove"},{"x":1016,"y":491,"t":99,"event":"mousemove"},{"x":1014,"y":491,"t":115,"event":"mousemove"},{"x":1012,"y":491,"t":132,"event":"mousemove"},{"x":1011,"y":491,"t":148,"event":"mousemove"},{"x":1009,"y":491,"t":165,"event":"mousemove"},{"x":1009,"y":489,"t":390,"event":"mousemove"},{"x":1007,"y":489,"t":445,"event":"mousemove"},{"x":1006,"y":489,"t":490,"event":"mousemove"},{"x":1004,"y":489,"t":507,"event":"mousemove"},{"x":1001,"y":489,"t":517,"event":"mousemove"},{"x":999,"y":489,"t":520,"event":"mousemove"},{"x":997,"y":489,"t":525,"event":"mousemove"},{"x":995,"y":489,"t":529,"event":"mousemove"},{"x":994,"y":489,"t":534,"event":"mousemove"},{"x":992,"y":489,"t":540,"event":"mousemove"},{"x":990,"y":489,"t":544,"event":"mousemove"},{"x":989,"y":489,"t":553,"event":"mousemove"},{"x":987,"y":489,"t":561,"event":"mousemove"},{"x":985,"y":489,"t":571,"event":"mousemove"},{"x":983,"y":489,"t":581,"event":"mousemove"},{"x":982,"y":489,"t":590,"event":"mousemove"},{"x":980,"y":489,"t":592,"event":"mousemove"},{"x":971,"y":489,"t":608,"event":"mousemove"},{"x":965,"y":489,"t":625,"event":"mousemove"},{"x":953,"y":491,"t":642,"event":"mousemove"},{"x":941,"y":498,"t":659,"event":"mousemove"},{"x":931,"y":506,"t":674,"event":"mousemove"},{"x":919,"y":515,"t":691,"event":"mousemove"},{"x":908,"y":522,"t":709,"event":"mousemove"},{"x":900,"y":529,"t":725,"event":"mousemove"},{"x":886,"y":539,"t":742,"event":"mousemove"},{"x":876,"y":546,"t":757,"event":"mousemove"},{"x":865,"y":555,"t":775,"event":"mousemove"},{"x":855,"y":563,"t":791,"event":"mousemove"},{"x":843,"y":575,"t":809,"event":"mousemove"},{"x":834,"y":584,"t":825,"event":"mousemove"},{"x":822,"y":597,"t":842,"event":"mousemove"},{"x":812,"y":609,"t":857,"event":"mousemove"},{"x":803,"y":618,"t":875,"event":"mousemove"},{"x":798,"y":623,"t":892,"event":"mousemove"},{"x":797,"y":625,"t":908,"event":"mousemove"}],"mouse_tracking_targets":{},"correct":false},{"rt":1426,"stimulus":"<p>How confident are you about your choice ? (click on the bar)</p>","slider_start":50,"response":87,"trial_type":"html-slider-response","trial_index":29,"time_elapsed":32547,"internal_node_id":"0.0-8.0-2.2"},{"rt":null,"stimulus":"\n        <div id='jspsych-image' style='position: relative; width: min(80vw, 80vh); height: min(80vw, 80vh);'>\n                \n                <div style='position: absolute; top: 40%; left: 30%; bottom: 40%; right: 30%;'><h1 style='font-size: 60px; color: red'>Wrong</h1></div>\n                \n                <div class='jspsych-image' id='jspsych-image-0' data-choice='0' style='top: 0;     left: 0;'><img style=\"width: 100%; height: 100%;\" src='../static/human_exp_images/task_rot/02_1.png' class=''></img></div>\n                <div class='jspsych-image' id='jspsych-image-1' data-choice='1' style='top: 0;     right: 0;'><img style=\"width: 100%; height: 100%;\" src='../static/human_exp_images/task_rot/02_2.png' class=''></img></div>\n                <div class='jspsych-image' id='jspsych-image-2' data-choice='2' style='bottom: 0;  left: 0;'><img style=\"width: 100%; height: 100%;\" src='../static/human_exp_images/task_rot/02_0.png' class='wrong-choice'></img></div>\n                <div class='jspsych-image' id='jspsych-image-3' data-choice='3' style='bottom: 0;  right: 0;'><img style=\"width: 100%; height: 100%;\" src='../static/human_exp_images/task_rot/02_3.png' class='correct-choice'></img></div>\n\n        </div>","response":null,"trial_type":"html-keyboard-response","trial_index":30,"time_elapsed":35053,"internal_node_id":"0.0-8.0-3.2"},{"rt":4340,"response":{"Q0":"llll"},"trial_type":"survey-text","trial_index":31,"time_elapsed":39402,"internal_node_id":"0.0-9.0"}]