[{"rt":null,"trial_type":"image-click","trial_index":4,"time_elapsed":5713,"internal_node_id":"0.0-4.0-0.0"},{"rt":901,"response":2,"all_choices":["../static/human_exp_images/practice_img/00_2.png","../static/human_exp_images/practice_img/00_1.png","../static/human_exp_images/practice_img/00_3.png","../static/human_exp_images/practice_img/00_0.png"],"task":"response","correct_response":2,"shuffled_array":[2,1,3,0],"catch_trial":false,"trial_type":"image-click","trial_index":5,"time_elapsed":6619,"internal_node_id":"0.0-4.0-1.0","mouse_tracking_data":[{"x":980,"y":546,"t":1,"event":"mousemove"},{"x":982,"y":534,"t":12,"event":"mousemove"},{"x":983,"y":531,"t":29,"event":"mousemove"},{"x":985,"y":529,"t":45,"event":"mousemove"},{"x":985,"y":527,"t":63,"event":"mousemove"},{"x":985,"y":526,"t":120,"event":"mousemove"},{"x":979,"y":526,"t":662,"event":"mousemove"},{"x":978,"y":526,"t":666,"event":"mousemove"},{"x":969,"y":526,"t":671,"event":"mousemove"},{"x":963,"y":526,"t":676,"event":"mousemove"},{"x":950,"y":526,"t":680,"event":"mousemove"},{"x":939,"y":526,"t":681,"event":"mousemove"},{"x":912,"y":536,"t":697,"event":"mousemove"},{"x":885,"y":551,"t":714,"event":"mousemove"},{"x":852,"y":567,"t":730,"event":"mousemove"},{"x":828,"y":581,"t":747,"event":"mousemove"},{"x":814,"y":592,"t":763,"event":"mousemove"},{"x":807,"y":597,"t":781,"event":"mousemove"},{"x":796,"y":604,"t":797,"event":"mousemove"},{"x":791,"y":607,"t":813,"event":"mousemove"}],"mouse_tracking_targets":{},"correct":true},{"rt":965,"stimulus":"<p>How confident are you about your choice ? (click on the bar)</p>","slider_start":50,"response":87,"trial_type":"html-slider-response","trial_index":6,"time_elapsed":7586,"internal_node_id":"0.0-4.0-2.0"},{"rt":null,"stimulus":"\n        <div id='jspsych-image' style='position: relative; width: min(80vw, 80vh); height: min(80vw, 80vh);'>\n                \n                <div style='position: absolute; top: 40%; left: 30%; bottom: 40%; right: 30%;'><h1 style='font-size: 60px; color: green;'>Correct!</h1></div>\n                \n                <div class='jspsych-image' id='jspsych-image-0' data-choice='0' style='top: 0;     left: 0;'><img style=\"width: 100%; height: 100%;\" src='../static/human_exp_images/practice_img/00_2.png' class=''></img></div>\n                <div class='jspsych-image' id='jspsych-image-1' data-choice='1' style='top: 0;     right: 0;'><img style=\"width: 100%; height: 100%;\" src='../static/human_exp_images/practice_img/00_1.png' class=''></img></div>\n                <div class='jspsych-image' id='jspsych-image-2' data-choice='2' style='bottom: 0;  left: 0;'><img style=\"width: 100%; height: 100%;\" src='../static/human_exp_images/practice_img/00_3.png' class='correct-choice'></img></div>\n                <div class='jspsych-image' id='jspsych-image-3' data-choice='3' style='bottom: 0;  right: 0;'><img style=\"width: 100%; height: 100%;\" src='../static/human_exp_images/practice_img/00_0.png' class=''></img></div>\n\n        </div>","response":null,"trial_type":"html-keyboard-response","trial_index":7,"time_elapsed":9091,"internal_node_id":"0.0-4.0-3.0"},{"rt":null,"trial_type":"image-click","trial_index":8,"time_elapsed":9511,"internal_node_id":"0.0-4.0-0.1"},{"rt":866,"response":1,"all_choices":["../static/human_exp_images/practice_img/01_2.png","../static/human_exp_images/practice_img/01_3.png","../static/human_exp_images/practice_img/01_1.png","../static/human_exp_images/practice_img/01_0.png"],"task":"response","correct_response":1,"shuffled_array":[2,3,1,0],"catch_trial":false,"trial_type":"image-click","trial_index":9,"time_elapsed":10382,"internal_node_id":"0.0-4.0-1.1","mouse_tracking_data":[{"x":1043,"y":472,"t":1,"event":"mousemove"},{"x":1033,"y":474,"t":10,"event":"mousemove"},{"x":1019,"y":474,"t":27,"event":"mousemove"},{"x":1009,"y":474,"t":43,"event":"mousemove"},{"x":1004,"y":474,"t":60,"event":"mousemove"},{"x":1000,"y":474,"t":77,"event":"mousemove"},{"x":998,"y":474,"t":94,"event":"mousemove"},{"x":997,"y":474,"t":142,"event":"mousemove"},{"x":998,"y":474,"t":638,"event":"mousemove"},{"x":1005,"y":474,"t":639,"event":"mousemove"},{"x":1018,"y":461,"t":656,"event":"mousemove"},{"x":1067,"y":416,"t":673,"event":"mousemove"},{"x":1098,"y":394,"t":689,"event":"mousemove"},{"x":1154,"y":350,"t":706,"event":"mousemove"},{"x":1205,"y":314,"t":722,"event":"mousemove"},{"x":1231,"y":293,"t":740,"event":"mousemove"},{"x":1240,"y":284,"t":756,"event":"mousemove"},{"x":1245,"y":279,"t":773,"event":"mousemove"},{"x":1246,"y":277,"t":790,"event":"mousemove"}],"mouse_tracking_targets":{},"correct":true},{"rt":809,"stimulus":"<p>How confident are you about your choice ? (click on the bar)</p>","slider_start":50,"response":93,"trial_type":"html-slider-response","trial_index":10,"time_elapsed":11195,"internal_node_id":"0.0-4.0-2.1"},{"rt":null,"stimulus":"\n        <div id='jspsych-image' style='position: relative; width: min(80vw, 80vh); height: min(80vw, 80vh);'>\n                \n                <div style='position: absolute; top: 40%; left: 30%; bottom: 40%; right: 30%;'><h1 style='font-size: 60px; color: green;'>Correct!</h1></div>\n                \n                <div class='jspsych-image' id='jspsych-image-0' data-choice='0' style='top: 0;     left: 0;'><img style=\"width: 100%; height: 100%;\" src='../static/human_exp_images/practice_img/01_2.png' class=''></img></div>\n                <div class='jspsych-image' id='jspsych-image-1' data-choice='1' style='top: 0;     right: 0;'><img style=\"width: 100%; height: 100%;\" src='../static/human_exp_images/practice_img/01_3.png' class='correct-choice'></img></div>\n                <div class='jspsych-image' id='jspsych-image-2' data-choice='2' style='bottom: 0;  left: 0;'><img style=\"width: 100%; height: 100%;\" src='../static/human_exp_images/practice_img/01_1.png' class=''></img></div>\n                <div class='jspsych-image' id='jspsych-image-3' data-choice='3' style='bottom: 0;  right: 0;'><img style=\"width: 100%; height: 100%;\" src='../static/human_exp_images/practice_img/01_0.png' class=''></img></div>\n\n        </div>","response":null,"trial_type":"html-keyboard-response","trial_index":11,"time_elapsed":12699,"internal_node_id":"0.0-4.0-3.1"},{"rt":null,"trial_type":"image-click","trial_index":12,"time_elapsed":13169,"internal_node_id":"0.0-4.0-0.2"},{"rt":1020,"response":3,"all_choices":["../static/human_exp_images/practice_img/02_1.png","../static/human_exp_images/practice_img/02_2.png","../static/human_exp_images/practice_img/02_0.png","../static/human_exp_images/practice_img/02_3.png"],"task":"response","correct_response":3,"shuffled_array":[1,2,0,3],"catch_trial":false,"trial_type":"image-click","trial_index":13,"time_elapsed":14190,"internal_node_id":"0.0-4.0-1.2","mouse_tracking_data":[{"x":1050,"y":450,"t":0,"event":"mousemove"},{"x":1045,"y":450,"t":15,"event":"mousemove"},{"x":1040,"y":450,"t":33,"event":"mousemove"},{"x":1038,"y":450,"t":50,"event":"mousemove"},{"x":1036,"y":450,"t":66,"event":"mousemove"},{"x":1035,"y":450,"t":84,"event":"mousemove"},{"x":1033,"y":450,"t":99,"event":"mousemove"},{"x":1028,"y":450,"t":116,"event":"mousemove"},{"x":1021,"y":450,"t":133,"event":"mousemove"},{"x":1012,"y":450,"t":150,"event":"mousemove"},{"x":1004,"y":450,"t":166,"event":"mousemove"},{"x":997,"y":450,"t":182,"event":"mousemove"},{"x":995,"y":450,"t":200,"event":"mousemove"},{"x":994,"y":450,"t":216,"event":"mousemove"},{"x":992,"y":450,"t":234,"event":"mousemove"},{"x":992,"y":452,"t":329,"event":"mousemove"},{"x":992,"y":454,"t":339,"event":"mousemove"},{"x":995,"y":455,"t":344,"event":"mousemove"},{"x":997,"y":457,"t":349,"event":"mousemove"},{"x":999,"y":459,"t":353,"event":"mousemove"},{"x":1000,"y":461,"t":354,"event":"mousemove"},{"x":1004,"y":464,"t":371,"event":"mousemove"},{"x":1011,"y":469,"t":388,"event":"mousemove"},{"x":1016,"y":474,"t":404,"event":"mousemove"},{"x":1018,"y":478,"t":420,"event":"mousemove"},{"x":1019,"y":478,"t":437,"event":"mousemove"},{"x":1021,"y":478,"t":552,"event":"mousemove"},{"x":1023,"y":478,"t":569,"event":"mousemove"},{"x":1024,"y":478,"t":580,"event":"mousemove"},{"x":1024,"y":479,"t":589,"event":"mousemove"},{"x":1026,"y":479,"t":592,"event":"mousemove"},{"x":1028,"y":479,"t":599,"event":"mousemove"},{"x":1028,"y":481,"t":603,"event":"mousemove"},{"x":1029,"y":481,"t":607,"event":"mousemove"},{"x":1031,"y":483,"t":608,"event":"mousemove"},{"x":1035,"y":484,"t":625,"event":"mousemove"},{"x":1047,"y":493,"t":643,"event":"mousemove"},{"x":1060,"y":507,"t":658,"event":"mousemove"},{"x":1076,"y":523,"t":675,"event":"mousemove"},{"x":1083,"y":533,"t":692,"event":"mousemove"},{"x":1092,"y":541,"t":709,"event":"mousemove"},{"x":1095,"y":547,"t":725,"event":"mousemove"},{"x":1102,"y":552,"t":742,"event":"mousemove"},{"x":1107,"y":557,"t":758,"event":"mousemove"},{"x":1110,"y":558,"t":775,"event":"mousemove"},{"x":1112,"y":560,"t":793,"event":"mousemove"},{"x":1112,"y":562,"t":809,"event":"mousemove"},{"x":1114,"y":562,"t":825,"event":"mousemove"},{"x":1119,"y":567,"t":842,"event":"mousemove"},{"x":1124,"y":574,"t":859,"event":"mousemove"},{"x":1127,"y":581,"t":875,"event":"mousemove"},{"x":1131,"y":586,"t":892,"event":"mousemove"},{"x":1134,"y":589,"t":909,"event":"mousemove"},{"x":1138,"y":593,"t":926,"event":"mousemove"},{"x":1139,"y":594,"t":942,"event":"mousemove"},{"x":1139,"y":596,"t":959,"event":"mousemove"},{"x":1139,"y":598,"t":975,"event":"mousemove"}],"mouse_tracking_targets":{},"correct":true},{"rt":1108,"stimulus":"<p>How confident are you about your choice ? (click on the bar)</p>","slider_start":50,"response":93,"trial_type":"html-slider-response","trial_index":14,"time_elapsed":15298,"internal_node_id":"0.0-4.0-2.2"},{"rt":null,"stimulus":"\n        <div id='jspsych-image' style='position: relative; width: min(80vw, 80vh); height: min(80vw, 80vh);'>\n                \n                <div style='position: absolute; top: 40%; left: 30%; bottom: 40%; right: 30%;'><h1 style='font-size: 60px; color: green;'>Correct!</h1></div>\n                \n                <div class='jspsych-image' id='jspsych-image-0' data-choice='0' style='top: 0;     left: 0;'><img style=\"width: 100%; height: 100%;\" src='../static/human_exp_images/practice_img/02_1.png' class=''></img></div>\n                <div class='jspsych-image' id='jspsych-image-1' data-choice='1' style='top: 0;     right: 0;'><img style=\"width: 100%; height: 100%;\" src='../static/human_exp_images/practice_img/02_2.png' class=''></img></div>\n                <div class='jspsych-image' id='jspsych-image-2' data-choice='2' style='bottom: 0;  left: 0;'><img style=\"width: 100%; height: 100%;\" src='../static/human_exp_images/practice_img/02_0.png' class=''></img></div>\n                <div class='jspsych-image' id='jspsych-image-3' data-choice='3' style='bottom: 0;  right: 0;'><img style=\"width: 100%; height: 100%;\" src='../static/human_exp_images/practice_img/02_3.png' class='correct-choice'></img></div>\n\n        </div>","response":null,"trial_type":"html-keyboard-response","trial_index":15,"time_elapsed":16801,"internal_node_id":"0.0-4.0-3.2"}]