[{"success":true,"timeout":false,"failed_images":[],"failed_audio":[],"failed_video":[],"trial_type":"preload","trial_index":0,"time_elapsed":12,"internal_node_id":"0.0-0.0"},{"rt":1061,"stimulus":"<p style='font-size: 40px'>Welcome to the experiment.</p><p style='font-size: 30px'>Press any key to begin.</p>","response":" ","trial_type":"html-keyboard-response","trial_index":1,"time_elapsed":1073,"internal_node_id":"0.0-1.0"},{"rt":2604,"stimulus":"\n    <p>In this experiment, 4 images will appear on the screen. 3 out of 4 images were generated with a certain rule while one image (the odd one out) does not respect this rule. Select the odd one out by clicking on the image.</p>\n    <p>Following your choice, you will be asked to rate how confident you were about your choice on a scale from 1 to 100. Then, you will receive feedback on the trial.</p>\n    <p>For each rule you will perform 20 trials. You will be notified at each rule change. </p>\n    <p> Press any button to continue </p>\n    <div style='margin: auto; position: relative; width: 400px; height: 400px;'>\n        <div style='position: absolute; top: 0;     left: 0; '><img src='../static/img/square.png'></img></div>\n        <div style='position: absolute; top: 0;     right: 0;'><img src='../static/img/square.png'></img></div>\n        <div style='position: absolute; bottom: 0;  left: 0; '><img src='../static/img/square.png'></img></div>\n        <div style='position: absolute; bottom: 0;  right: 0;'><img src='../static/img/square.png'></img></div>\n    </div>\n","response":" ","trial_type":"html-keyboard-response","trial_index":2,"time_elapsed":3681,"internal_node_id":"0.0-2.0"},{"rt":758,"stimulus":"<h1 style='font-size: 60px'>New Rule!</h1> <p>Press any key to begin.</p>","response":" ","trial_type":"html-keyboard-response","trial_index":3,"time_elapsed":6440,"internal_node_id":"0.0-3.0"},{"rt":808,"response":3,"all_choices":["../static/human_exp_images/task_shape/00_1.png","../static/human_exp_images/task_shape/00_0.png","../static/human_exp_images/task_shape/00_3.png","../static/human_exp_images/task_shape/00_2.png"],"task":"response","correct_response":2,"shuffled_array":[1,0,3,2],"trial_type":"image-click","trial_index":4,"time_elapsed":7251,"internal_node_id":"0.0-4.0-0.0","mouse_tracking_data":[{"x":944,"y":529,"t":391,"event":"mousemove"},{"x":944,"y":527,"t":408,"event":"mousemove"},{"x":944,"y":525,"t":410,"event":"mousemove"},{"x":944,"y":524,"t":417,"event":"mousemove"},{"x":948,"y":522,"t":426,"event":"mousemove"},{"x":953,"y":522,"t":426,"event":"mousemove"},{"x":971,"y":522,"t":443,"event":"mousemove"},{"x":1038,"y":522,"t":460,"event":"mousemove"},{"x":1076,"y":522,"t":476,"event":"mousemove"},{"x":1093,"y":526,"t":493,"event":"mousemove"},{"x":1098,"y":542,"t":509,"event":"mousemove"},{"x":1104,"y":552,"t":527,"event":"mousemove"},{"x":1109,"y":559,"t":542,"event":"mousemove"},{"x":1112,"y":562,"t":560,"event":"mousemove"},{"x":1121,"y":569,"t":576,"event":"mousemove"},{"x":1126,"y":572,"t":594,"event":"mousemove"},{"x":1134,"y":578,"t":610,"event":"mousemove"},{"x":1141,"y":581,"t":627,"event":"mousemove"},{"x":1148,"y":585,"t":643,"event":"mousemove"},{"x":1150,"y":585,"t":660,"event":"mousemove"},{"x":1152,"y":585,"t":677,"event":"mousemove"},{"x":1153,"y":585,"t":697,"event":"mousemove"},{"x":1153,"y":586,"t":710,"event":"mousemove"}],"mouse_tracking_targets":{},"correct":false},{"rt":797,"stimulus":"<p>How confident are you about your choice ?</p>","slider_start":50,"response":50,"trial_type":"html-slider-response","trial_index":5,"time_elapsed":8051,"internal_node_id":"0.0-4.0-1.0"},{"rt":null,"stimulus":"\n        <div id='jspsych-image' style='position: relative; width: min(80vw, 80vh); height: min(80vw, 80vh);'>\n                \n                <div style='position: absolute; top: 40%; left: 30%; bottom: 40%; right: 30%;'><h1 style='font-size: 60px; color: red'>Wrong</h1></div>\n                \n                <div class='jspsych-image' id='jspsych-image-0' data-choice='0' style='top: 0;     left: 0;'><img style=\"max-width: 100%; max-height: 100%;\" src='../static/human_exp_images/task_shape/00_1.png' class=''></img></div>\n                <div class='jspsych-image' id='jspsych-image-1' data-choice='1' style='top: 0;     right: 0;'><img style=\"max-width: 100%; max-height: 100%;\" src='../static/human_exp_images/task_shape/00_0.png' class=''></img></div>\n                <div class='jspsych-image' id='jspsych-image-2' data-choice='2' style='bottom: 0;  left: 0;'><img style=\"max-width: 100%; max-height: 100%;\" src='../static/human_exp_images/task_shape/00_3.png' class='correct-choice'></img></div>\n                <div class='jspsych-image' id='jspsych-image-3' data-choice='3' style='bottom: 0;  right: 0;'><img style=\"max-width: 100%; max-height: 100%;\" src='../static/human_exp_images/task_shape/00_2.png' class='wrong-choice'></img></div>\n\n        </div>","response":null,"trial_type":"html-keyboard-response","trial_index":6,"time_elapsed":10555,"internal_node_id":"0.0-4.0-2.0"},{"rt":1637,"stimulus":"<p>You responded correctly on 0% of the trials.</p>\n    <p>Your average response time was NaNms.</p>\n    <p>Press any key to complete the experiment. Thank you!</p>","response":" ","trial_type":"html-keyboard-response","trial_index":7,"time_elapsed":12196,"internal_node_id":"0.0-5.0","interactions":"[]"}]