[{"success":true,"timeout":false,"failed_images":[],"failed_audio":[],"failed_video":[],"trial_type":"preload","trial_index":0,"time_elapsed":215,"internal_node_id":"0.0-0.0"},{"rt":1532,"stimulus":"<p style='font-size: 40px'>Welcome to the experiment.</p><p style='font-size: 30px'>Press any key to begin.</p>","response":" ","trial_type":"html-keyboard-response","trial_index":1,"time_elapsed":1748,"internal_node_id":"0.0-1.0"},{"rt":2740,"stimulus":"\n    <p>In this experiment, 4 images will appear on the screen. 3 out of 4 images were generated with a certain rule while one image (the odd one out) does not respect this rule.</p>\n    <p>Select the odd one out by clicking on the image.</p>\n    <p>Following your choice, you will be asked to rate how confident you were about your choice on a scale from 1 to 100. Then, you will receive feedback on the trial.</p>\n    <p>For each rule you will perform 20 trials. You will be notified at each rule change. </p>\n    <p>The following 3 trials will allow you to get familiar with the odd-one-out task. The experiment starts after this practice session.</p>\n    <p> Press any button to continue </p>\n    <div style='margin: auto; position: relative; width: 400px; height: 400px;'>\n        <div style='position: absolute; top: 0;     left: 0; '><img src='../static/img/square.png'></img></div>\n        <div style='position: absolute; top: 0;     right: 0;'><img src='../static/img/square.png'></img></div>\n        <div style='position: absolute; bottom: 0;  left: 0; '><img src='../static/img/square.png'></img></div>\n        <div style='position: absolute; bottom: 0;  right: 0;'><img src='../static/img/square.png'></img></div>\n    </div>\n","response":" ","trial_type":"html-keyboard-response","trial_index":2,"time_elapsed":4492,"internal_node_id":"0.0-2.0"},{"rt":null,"trial_type":"image-click","trial_index":3,"time_elapsed":7494,"internal_node_id":"0.0-3.0-0.0"},{"rt":10518,"response":1,"all_choices":["../static/human_exp_images/practice_img/00_3.png","../static/human_exp_images/practice_img/00_2.png","../static/human_exp_images/practice_img/00_0.png","../static/human_exp_images/practice_img/00_1.png"],"task":"response","correct_response":0,"shuffled_array":[3,2,0,1],"trial_type":"image-click","trial_index":4,"time_elapsed":18032,"internal_node_id":"0.0-3.0-1.0","mouse_tracking_data":[{"x":527,"y":542,"t":1,"event":"mousemove"},{"x":529,"y":532,"t":6,"event":"mousemove"},{"x":529,"y":527,"t":13,"event":"mousemove"},{"x":529,"y":522,"t":29,"event":"mousemove"},{"x":529,"y":513,"t":45,"event":"mousemove"},{"x":529,"y":508,"t":64,"event":"mousemove"},{"x":529,"y":499,"t":80,"event":"mousemove"},{"x":529,"y":491,"t":96,"event":"mousemove"},{"x":529,"y":481,"t":113,"event":"mousemove"},{"x":529,"y":476,"t":130,"event":"mousemove"},{"x":529,"y":472,"t":147,"event":"mousemove"},{"x":529,"y":470,"t":162,"event":"mousemove"},{"x":529,"y":469,"t":179,"event":"mousemove"},{"x":529,"y":467,"t":195,"event":"mousemove"},{"x":529,"y":465,"t":221,"event":"mousemove"},{"x":529,"y":462,"t":3595,"event":"mousemove"},{"x":529,"y":461,"t":3598,"event":"mousemove"},{"x":529,"y":457,"t":3603,"event":"mousemove"},{"x":529,"y":455,"t":3604,"event":"mousemove"},{"x":534,"y":449,"t":3621,"event":"mousemove"},{"x":546,"y":432,"t":3638,"event":"mousemove"},{"x":564,"y":409,"t":3654,"event":"mousemove"},{"x":587,"y":386,"t":3671,"event":"mousemove"},{"x":606,"y":366,"t":3688,"event":"mousemove"},{"x":619,"y":356,"t":3704,"event":"mousemove"},{"x":627,"y":347,"t":3721,"event":"mousemove"},{"x":634,"y":342,"t":3738,"event":"mousemove"},{"x":646,"y":334,"t":3754,"event":"mousemove"},{"x":655,"y":325,"t":3770,"event":"mousemove"},{"x":665,"y":315,"t":3788,"event":"mousemove"},{"x":674,"y":306,"t":3804,"event":"mousemove"},{"x":684,"y":294,"t":3821,"event":"mousemove"},{"x":691,"y":288,"t":3838,"event":"mousemove"},{"x":696,"y":282,"t":3854,"event":"mousemove"},{"x":701,"y":274,"t":3872,"event":"mousemove"},{"x":706,"y":269,"t":3888,"event":"mousemove"},{"x":711,"y":265,"t":3905,"event":"mousemove"},{"x":713,"y":262,"t":3921,"event":"mousemove"},{"x":711,"y":263,"t":4253,"event":"mousemove"},{"x":706,"y":270,"t":4261,"event":"mousemove"},{"x":702,"y":275,"t":4262,"event":"mousemove"},{"x":683,"y":298,"t":4278,"event":"mousemove"},{"x":664,"y":317,"t":4296,"event":"mousemove"},{"x":637,"y":347,"t":4311,"event":"mousemove"},{"x":614,"y":370,"t":4329,"event":"mousemove"},{"x":604,"y":385,"t":4345,"event":"mousemove"},{"x":599,"y":392,"t":4361,"event":"mousemove"},{"x":595,"y":399,"t":4378,"event":"mousemove"},{"x":590,"y":405,"t":4395,"event":"mousemove"},{"x":585,"y":412,"t":4413,"event":"mousemove"},{"x":581,"y":419,"t":4428,"event":"mousemove"},{"x":576,"y":426,"t":4446,"event":"mousemove"},{"x":573,"y":431,"t":4462,"event":"mousemove"},{"x":568,"y":438,"t":4478,"event":"mousemove"},{"x":566,"y":441,"t":4495,"event":"mousemove"},{"x":563,"y":446,"t":4512,"event":"mousemove"},{"x":563,"y":448,"t":4528,"event":"mousemove"},{"x":561,"y":448,"t":4545,"event":"mousemove"},{"x":561,"y":447,"t":9648,"event":"mousemove"},{"x":561,"y":445,"t":9757,"event":"mousemove"},{"x":561,"y":443,"t":9775,"event":"mousemove"},{"x":561,"y":441,"t":9857,"event":"mousemove"},{"x":561,"y":440,"t":9948,"event":"mousemove"},{"x":561,"y":438,"t":9967,"event":"mousemove"},{"x":561,"y":436,"t":9994,"event":"mousemove"},{"x":561,"y":435,"t":10012,"event":"mousemove"},{"x":561,"y":433,"t":10029,"event":"mousemove"},{"x":561,"y":431,"t":10039,"event":"mousemove"},{"x":561,"y":429,"t":10041,"event":"mousemove"},{"x":561,"y":426,"t":10056,"event":"mousemove"},{"x":568,"y":418,"t":10073,"event":"mousemove"},{"x":578,"y":406,"t":10090,"event":"mousemove"},{"x":590,"y":394,"t":10107,"event":"mousemove"},{"x":607,"y":380,"t":10124,"event":"mousemove"},{"x":624,"y":367,"t":10140,"event":"mousemove"},{"x":635,"y":356,"t":10156,"event":"mousemove"},{"x":654,"y":342,"t":10173,"event":"mousemove"},{"x":669,"y":324,"t":10190,"event":"mousemove"},{"x":680,"y":315,"t":10207,"event":"mousemove"},{"x":688,"y":306,"t":10224,"event":"mousemove"},{"x":693,"y":301,"t":10240,"event":"mousemove"},{"x":698,"y":296,"t":10256,"event":"mousemove"},{"x":698,"y":294,"t":10273,"event":"mousemove"},{"x":698,"y":292,"t":10294,"event":"mousemove"},{"x":700,"y":291,"t":10338,"event":"mousemove"},{"x":702,"y":291,"t":10347,"event":"mousemove"},{"x":704,"y":287,"t":10357,"event":"mousemove"},{"x":710,"y":282,"t":10375,"event":"mousemove"},{"x":714,"y":280,"t":10390,"event":"mousemove"},{"x":716,"y":279,"t":10407,"event":"mousemove"}],"mouse_tracking_targets":{},"correct":false},{"rt":3129,"stimulus":"<p>How confident are you about your choice ?</p>","slider_start":50,"response":73,"trial_type":"html-slider-response","trial_index":5,"time_elapsed":21162,"internal_node_id":"0.0-3.0-2.0"},{"rt":null,"stimulus":"\n        <div id='jspsych-image' style='position: relative; width: min(80vw, 80vh); height: min(80vw, 80vh);'>\n                \n                <div style='position: absolute; top: 40%; left: 30%; bottom: 40%; right: 30%;'><h1 style='font-size: 60px; color: red'>Wrong</h1></div>\n                \n                <div class='jspsych-image' id='jspsych-image-0' data-choice='0' style='top: 0;     left: 0;'><img style=\"width: 100%; height: 100%;\" src='../static/human_exp_images/practice_img/00_3.png' class='correct-choice'></img></div>\n                <div class='jspsych-image' id='jspsych-image-1' data-choice='1' style='top: 0;     right: 0;'><img style=\"width: 100%; height: 100%;\" src='../static/human_exp_images/practice_img/00_2.png' class='wrong-choice'></img></div>\n                <div class='jspsych-image' id='jspsych-image-2' data-choice='2' style='bottom: 0;  left: 0;'><img style=\"width: 100%; height: 100%;\" src='../static/human_exp_images/practice_img/00_0.png' class=''></img></div>\n                <div class='jspsych-image' id='jspsych-image-3' data-choice='3' style='bottom: 0;  right: 0;'><img style=\"width: 100%; height: 100%;\" src='../static/human_exp_images/practice_img/00_1.png' class=''></img></div>\n\n        </div>","response":null,"trial_type":"html-keyboard-response","trial_index":6,"time_elapsed":23666,"internal_node_id":"0.0-3.0-3.0"},{"rt":null,"trial_type":"image-click","trial_index":7,"time_elapsed":25146,"internal_node_id":"0.0-3.0-0.1"},{"rt":8133,"response":3,"all_choices":["../static/human_exp_images/practice_img/01_1.png","../static/human_exp_images/practice_img/01_0.png","../static/human_exp_images/practice_img/01_2.png","../static/human_exp_images/practice_img/01_3.png"],"task":"response","correct_response":3,"shuffled_array":[1,0,2,3],"trial_type":"image-click","trial_index":8,"time_elapsed":33285,"internal_node_id":"0.0-3.0-1.1","mouse_tracking_data":[{"x":523,"y":545,"t":1,"event":"mousemove"},{"x":525,"y":545,"t":57,"event":"mousemove"},{"x":525,"y":544,"t":173,"event":"mousemove"},{"x":525,"y":542,"t":212,"event":"mousemove"},{"x":525,"y":540,"t":302,"event":"mousemove"},{"x":525,"y":539,"t":329,"event":"mousemove"},{"x":525,"y":537,"t":358,"event":"mousemove"},{"x":525,"y":535,"t":458,"event":"mousemove"},{"x":525,"y":533,"t":503,"event":"mousemove"},{"x":525,"y":532,"t":576,"event":"mousemove"},{"x":525,"y":530,"t":595,"event":"mousemove"},{"x":525,"y":528,"t":611,"event":"mousemove"},{"x":525,"y":527,"t":631,"event":"mousemove"},{"x":525,"y":525,"t":667,"event":"mousemove"},{"x":525,"y":523,"t":695,"event":"mousemove"},{"x":525,"y":522,"t":768,"event":"mousemove"},{"x":525,"y":520,"t":841,"event":"mousemove"},{"x":525,"y":518,"t":887,"event":"mousemove"},{"x":527,"y":518,"t":4154,"event":"mousemove"},{"x":528,"y":518,"t":4182,"event":"mousemove"},{"x":530,"y":520,"t":4199,"event":"mousemove"},{"x":530,"y":522,"t":4218,"event":"mousemove"},{"x":530,"y":523,"t":4245,"event":"mousemove"},{"x":532,"y":523,"t":4282,"event":"mousemove"},{"x":532,"y":525,"t":4410,"event":"mousemove"},{"x":532,"y":527,"t":4491,"event":"mousemove"},{"x":532,"y":528,"t":4546,"event":"mousemove"},{"x":532,"y":530,"t":4565,"event":"mousemove"},{"x":532,"y":532,"t":4592,"event":"mousemove"},{"x":532,"y":533,"t":4610,"event":"mousemove"},{"x":532,"y":535,"t":4646,"event":"mousemove"},{"x":532,"y":537,"t":4665,"event":"mousemove"},{"x":532,"y":539,"t":4683,"event":"mousemove"},{"x":532,"y":540,"t":4708,"event":"mousemove"},{"x":530,"y":542,"t":4729,"event":"mousemove"},{"x":528,"y":542,"t":4739,"event":"mousemove"},{"x":528,"y":544,"t":4747,"event":"mousemove"},{"x":527,"y":544,"t":4750,"event":"mousemove"},{"x":525,"y":545,"t":4757,"event":"mousemove"},{"x":523,"y":547,"t":4766,"event":"mousemove"},{"x":521,"y":547,"t":4770,"event":"mousemove"},{"x":520,"y":549,"t":4774,"event":"mousemove"},{"x":518,"y":551,"t":4784,"event":"mousemove"},{"x":516,"y":551,"t":4786,"event":"mousemove"},{"x":515,"y":551,"t":4802,"event":"mousemove"},{"x":511,"y":551,"t":4818,"event":"mousemove"},{"x":510,"y":551,"t":4839,"event":"mousemove"},{"x":508,"y":551,"t":4856,"event":"mousemove"},{"x":506,"y":551,"t":4884,"event":"mousemove"},{"x":504,"y":551,"t":4902,"event":"mousemove"},{"x":503,"y":551,"t":4921,"event":"mousemove"},{"x":501,"y":551,"t":4947,"event":"mousemove"},{"x":499,"y":551,"t":4964,"event":"mousemove"},{"x":498,"y":551,"t":4988,"event":"mousemove"},{"x":496,"y":552,"t":4993,"event":"mousemove"},{"x":492,"y":552,"t":5002,"event":"mousemove"},{"x":491,"y":552,"t":5004,"event":"mousemove"},{"x":486,"y":554,"t":5020,"event":"mousemove"},{"x":480,"y":556,"t":5037,"event":"mousemove"},{"x":470,"y":557,"t":5053,"event":"mousemove"},{"x":458,"y":563,"t":5071,"event":"mousemove"},{"x":446,"y":566,"t":5086,"event":"mousemove"},{"x":425,"y":576,"t":5104,"event":"mousemove"},{"x":415,"y":581,"t":5121,"event":"mousemove"},{"x":406,"y":585,"t":5137,"event":"mousemove"},{"x":397,"y":588,"t":5153,"event":"mousemove"},{"x":389,"y":593,"t":5170,"event":"mousemove"},{"x":380,"y":597,"t":5187,"event":"mousemove"},{"x":372,"y":602,"t":5204,"event":"mousemove"},{"x":365,"y":605,"t":5220,"event":"mousemove"},{"x":356,"y":609,"t":5238,"event":"mousemove"},{"x":351,"y":612,"t":5253,"event":"mousemove"},{"x":348,"y":614,"t":5270,"event":"mousemove"},{"x":341,"y":617,"t":5287,"event":"mousemove"},{"x":332,"y":624,"t":5304,"event":"mousemove"},{"x":331,"y":626,"t":5320,"event":"mousemove"},{"x":326,"y":627,"t":5337,"event":"mousemove"},{"x":317,"y":633,"t":5353,"event":"mousemove"},{"x":310,"y":638,"t":5371,"event":"mousemove"},{"x":309,"y":639,"t":5388,"event":"mousemove"},{"x":305,"y":639,"t":5403,"event":"mousemove"},{"x":305,"y":641,"t":5709,"event":"mousemove"},{"x":305,"y":643,"t":5722,"event":"mousemove"},{"x":307,"y":643,"t":5771,"event":"mousemove"},{"x":309,"y":643,"t":5773,"event":"mousemove"},{"x":312,"y":630,"t":5790,"event":"mousemove"},{"x":320,"y":589,"t":5807,"event":"mousemove"},{"x":322,"y":564,"t":5823,"event":"mousemove"},{"x":327,"y":521,"t":5841,"event":"mousemove"},{"x":330,"y":506,"t":5857,"event":"mousemove"},{"x":335,"y":412,"t":5873,"event":"mousemove"},{"x":335,"y":389,"t":5889,"event":"mousemove"},{"x":335,"y":373,"t":5906,"event":"mousemove"},{"x":335,"y":360,"t":5923,"event":"mousemove"},{"x":335,"y":355,"t":5939,"event":"mousemove"},{"x":335,"y":343,"t":5957,"event":"mousemove"},{"x":335,"y":333,"t":5973,"event":"mousemove"},{"x":335,"y":329,"t":5990,"event":"mousemove"},{"x":335,"y":326,"t":6005,"event":"mousemove"},{"x":335,"y":324,"t":6042,"event":"mousemove"},{"x":335,"y":321,"t":6060,"event":"mousemove"},{"x":335,"y":312,"t":6073,"event":"mousemove"},{"x":335,"y":291,"t":6089,"event":"mousemove"},{"x":335,"y":277,"t":6107,"event":"mousemove"},{"x":335,"y":267,"t":6123,"event":"mousemove"},{"x":335,"y":257,"t":6140,"event":"mousemove"},{"x":335,"y":253,"t":6156,"event":"mousemove"},{"x":335,"y":250,"t":6173,"event":"mousemove"},{"x":335,"y":248,"t":6190,"event":"mousemove"},{"x":337,"y":248,"t":6601,"event":"mousemove"},{"x":340,"y":248,"t":6607,"event":"mousemove"},{"x":343,"y":248,"t":6615,"event":"mousemove"},{"x":345,"y":248,"t":6616,"event":"mousemove"},{"x":350,"y":248,"t":6625,"event":"mousemove"},{"x":352,"y":248,"t":6626,"event":"mousemove"},{"x":359,"y":248,"t":6641,"event":"mousemove"},{"x":369,"y":248,"t":6659,"event":"mousemove"},{"x":378,"y":248,"t":6676,"event":"mousemove"},{"x":384,"y":248,"t":6692,"event":"mousemove"},{"x":395,"y":248,"t":6709,"event":"mousemove"},{"x":403,"y":248,"t":6726,"event":"mousemove"},{"x":424,"y":248,"t":6743,"event":"mousemove"},{"x":448,"y":248,"t":6759,"event":"mousemove"},{"x":476,"y":248,"t":6776,"event":"mousemove"},{"x":488,"y":248,"t":6792,"event":"mousemove"},{"x":505,"y":248,"t":6809,"event":"mousemove"},{"x":516,"y":248,"t":6825,"event":"mousemove"},{"x":536,"y":248,"t":6842,"event":"mousemove"},{"x":560,"y":248,"t":6859,"event":"mousemove"},{"x":580,"y":248,"t":6876,"event":"mousemove"},{"x":596,"y":248,"t":6893,"event":"mousemove"},{"x":607,"y":247,"t":6909,"event":"mousemove"},{"x":615,"y":245,"t":6926,"event":"mousemove"},{"x":629,"y":243,"t":6942,"event":"mousemove"},{"x":637,"y":243,"t":6959,"event":"mousemove"},{"x":643,"y":243,"t":6975,"event":"mousemove"},{"x":653,"y":243,"t":6992,"event":"mousemove"},{"x":657,"y":243,"t":7009,"event":"mousemove"},{"x":660,"y":243,"t":7025,"event":"mousemove"},{"x":662,"y":243,"t":7045,"event":"mousemove"},{"x":664,"y":243,"t":7063,"event":"mousemove"},{"x":665,"y":243,"t":7075,"event":"mousemove"},{"x":671,"y":243,"t":7093,"event":"mousemove"},{"x":674,"y":243,"t":7109,"event":"mousemove"},{"x":676,"y":243,"t":7125,"event":"mousemove"},{"x":683,"y":243,"t":7142,"event":"mousemove"},{"x":694,"y":243,"t":7159,"event":"mousemove"},{"x":701,"y":243,"t":7176,"event":"mousemove"},{"x":706,"y":243,"t":7192,"event":"mousemove"},{"x":708,"y":243,"t":7208,"event":"mousemove"},{"x":712,"y":243,"t":7226,"event":"mousemove"},{"x":713,"y":243,"t":7242,"event":"mousemove"},{"x":715,"y":243,"t":7260,"event":"mousemove"},{"x":717,"y":243,"t":7276,"event":"mousemove"},{"x":718,"y":243,"t":7357,"event":"mousemove"},{"x":718,"y":245,"t":7513,"event":"mousemove"},{"x":718,"y":247,"t":7515,"event":"mousemove"},{"x":718,"y":259,"t":7531,"event":"mousemove"},{"x":718,"y":279,"t":7548,"event":"mousemove"},{"x":718,"y":291,"t":7564,"event":"mousemove"},{"x":718,"y":310,"t":7581,"event":"mousemove"},{"x":718,"y":329,"t":7597,"event":"mousemove"},{"x":718,"y":349,"t":7614,"event":"mousemove"},{"x":718,"y":368,"t":7632,"event":"mousemove"},{"x":718,"y":383,"t":7649,"event":"mousemove"},{"x":718,"y":400,"t":7664,"event":"mousemove"},{"x":718,"y":437,"t":7681,"event":"mousemove"},{"x":718,"y":491,"t":7698,"event":"mousemove"},{"x":718,"y":509,"t":7714,"event":"mousemove"},{"x":718,"y":532,"t":7731,"event":"mousemove"},{"x":718,"y":546,"t":7747,"event":"mousemove"},{"x":718,"y":570,"t":7765,"event":"mousemove"},{"x":718,"y":587,"t":7781,"event":"mousemove"},{"x":718,"y":603,"t":7798,"event":"mousemove"},{"x":718,"y":615,"t":7815,"event":"mousemove"},{"x":718,"y":626,"t":7830,"event":"mousemove"},{"x":718,"y":632,"t":7848,"event":"mousemove"},{"x":718,"y":638,"t":7865,"event":"mousemove"},{"x":718,"y":643,"t":7882,"event":"mousemove"},{"x":718,"y":644,"t":7898,"event":"mousemove"},{"x":718,"y":646,"t":7958,"event":"mousemove"},{"x":718,"y":648,"t":7964,"event":"mousemove"},{"x":718,"y":651,"t":7982,"event":"mousemove"},{"x":718,"y":656,"t":7998,"event":"mousemove"},{"x":718,"y":658,"t":8015,"event":"mousemove"},{"x":718,"y":660,"t":8032,"event":"mousemove"},{"x":718,"y":661,"t":8048,"event":"mousemove"}],"mouse_tracking_targets":{},"correct":true},{"rt":2956,"stimulus":"<p>How confident are you about your choice ?</p>","slider_start":50,"response":77,"trial_type":"html-slider-response","trial_index":9,"time_elapsed":36243,"internal_node_id":"0.0-3.0-2.1"},{"rt":null,"stimulus":"\n        <div id='jspsych-image' style='position: relative; width: min(80vw, 80vh); height: min(80vw, 80vh);'>\n                \n                <div style='position: absolute; top: 40%; left: 30%; bottom: 40%; right: 30%;'><h1 style='font-size: 60px; color: green;'>Correct!</h1></div>\n                \n                <div class='jspsych-image' id='jspsych-image-0' data-choice='0' style='top: 0;     left: 0;'><img style=\"width: 100%; height: 100%;\" src='../static/human_exp_images/practice_img/01_1.png' class=''></img></div>\n                <div class='jspsych-image' id='jspsych-image-1' data-choice='1' style='top: 0;     right: 0;'><img style=\"width: 100%; height: 100%;\" src='../static/human_exp_images/practice_img/01_0.png' class=''></img></div>\n                <div class='jspsych-image' id='jspsych-image-2' data-choice='2' style='bottom: 0;  left: 0;'><img style=\"width: 100%; height: 100%;\" src='../static/human_exp_images/practice_img/01_2.png' class=''></img></div>\n                <div class='jspsych-image' id='jspsych-image-3' data-choice='3' style='bottom: 0;  right: 0;'><img style=\"width: 100%; height: 100%;\" src='../static/human_exp_images/practice_img/01_3.png' class='correct-choice'></img></div>\n\n        </div>","response":null,"trial_type":"html-keyboard-response","trial_index":10,"time_elapsed":37744,"internal_node_id":"0.0-3.0-3.1"},{"rt":null,"trial_type":"image-click","trial_index":11,"time_elapsed":37747,"internal_node_id":"0.0-3.0-0.2"},{"rt":3135,"response":1,"all_choices":["../static/human_exp_images/practice_img/02_2.png","../static/human_exp_images/practice_img/02_3.png","../static/human_exp_images/practice_img/02_1.png","../static/human_exp_images/practice_img/02_0.png"],"task":"response","correct_response":1,"shuffled_array":[2,3,1,0],"trial_type":"image-click","trial_index":12,"time_elapsed":40888,"internal_node_id":"0.0-3.0-1.2","mouse_tracking_data":[{"x":531,"y":472,"t":10,"event":"mousemove"},{"x":533,"y":468,"t":26,"event":"mousemove"},{"x":534,"y":465,"t":43,"event":"mousemove"},{"x":536,"y":463,"t":60,"event":"mousemove"},{"x":538,"y":462,"t":76,"event":"mousemove"},{"x":540,"y":460,"t":93,"event":"mousemove"},{"x":540,"y":458,"t":110,"event":"mousemove"},{"x":540,"y":455,"t":127,"event":"mousemove"},{"x":541,"y":451,"t":143,"event":"mousemove"},{"x":543,"y":451,"t":160,"event":"mousemove"},{"x":545,"y":448,"t":176,"event":"mousemove"},{"x":545,"y":446,"t":194,"event":"mousemove"},{"x":546,"y":446,"t":217,"event":"mousemove"},{"x":546,"y":448,"t":2031,"event":"mousemove"},{"x":545,"y":450,"t":2033,"event":"mousemove"},{"x":545,"y":451,"t":2067,"event":"mousemove"},{"x":545,"y":448,"t":2357,"event":"mousemove"},{"x":550,"y":444,"t":2363,"event":"mousemove"},{"x":552,"y":440,"t":2364,"event":"mousemove"},{"x":560,"y":432,"t":2373,"event":"mousemove"},{"x":562,"y":430,"t":2375,"event":"mousemove"},{"x":566,"y":424,"t":2382,"event":"mousemove"},{"x":569,"y":423,"t":2385,"event":"mousemove"},{"x":573,"y":417,"t":2392,"event":"mousemove"},{"x":575,"y":415,"t":2395,"event":"mousemove"},{"x":580,"y":412,"t":2400,"event":"mousemove"},{"x":581,"y":408,"t":2401,"event":"mousemove"},{"x":585,"y":405,"t":2409,"event":"mousemove"},{"x":589,"y":403,"t":2410,"event":"mousemove"},{"x":592,"y":400,"t":2418,"event":"mousemove"},{"x":594,"y":398,"t":2420,"event":"mousemove"},{"x":597,"y":394,"t":2426,"event":"mousemove"},{"x":599,"y":393,"t":2431,"event":"mousemove"},{"x":602,"y":389,"t":2436,"event":"mousemove"},{"x":604,"y":388,"t":2437,"event":"mousemove"},{"x":606,"y":386,"t":2446,"event":"mousemove"},{"x":607,"y":386,"t":2448,"event":"mousemove"},{"x":613,"y":382,"t":2464,"event":"mousemove"},{"x":621,"y":374,"t":2481,"event":"mousemove"},{"x":635,"y":364,"t":2497,"event":"mousemove"},{"x":645,"y":353,"t":2514,"event":"mousemove"},{"x":655,"y":341,"t":2530,"event":"mousemove"},{"x":675,"y":324,"t":2547,"event":"mousemove"},{"x":683,"y":308,"t":2564,"event":"mousemove"},{"x":688,"y":302,"t":2580,"event":"mousemove"},{"x":694,"y":298,"t":2597,"event":"mousemove"},{"x":695,"y":295,"t":2614,"event":"mousemove"},{"x":695,"y":293,"t":2656,"event":"mousemove"},{"x":697,"y":293,"t":2665,"event":"mousemove"},{"x":702,"y":290,"t":2680,"event":"mousemove"},{"x":714,"y":283,"t":2697,"event":"mousemove"},{"x":724,"y":278,"t":2715,"event":"mousemove"},{"x":729,"y":272,"t":2730,"event":"mousemove"},{"x":733,"y":271,"t":2747,"event":"mousemove"}],"mouse_tracking_targets":{},"correct":true},{"rt":2169,"stimulus":"<p>How confident are you about your choice ?</p>","slider_start":50,"response":74,"trial_type":"html-slider-response","trial_index":13,"time_elapsed":43058,"internal_node_id":"0.0-3.0-2.2"},{"rt":null,"stimulus":"\n        <div id='jspsych-image' style='position: relative; width: min(80vw, 80vh); height: min(80vw, 80vh);'>\n                \n                <div style='position: absolute; top: 40%; left: 30%; bottom: 40%; right: 30%;'><h1 style='font-size: 60px; color: green;'>Correct!</h1></div>\n                \n                <div class='jspsych-image' id='jspsych-image-0' data-choice='0' style='top: 0;     left: 0;'><img style=\"width: 100%; height: 100%;\" src='../static/human_exp_images/practice_img/02_2.png' class=''></img></div>\n                <div class='jspsych-image' id='jspsych-image-1' data-choice='1' style='top: 0;     right: 0;'><img style=\"width: 100%; height: 100%;\" src='../static/human_exp_images/practice_img/02_3.png' class='correct-choice'></img></div>\n                <div class='jspsych-image' id='jspsych-image-2' data-choice='2' style='bottom: 0;  left: 0;'><img style=\"width: 100%; height: 100%;\" src='../static/human_exp_images/practice_img/02_1.png' class=''></img></div>\n                <div class='jspsych-image' id='jspsych-image-3' data-choice='3' style='bottom: 0;  right: 0;'><img style=\"width: 100%; height: 100%;\" src='../static/human_exp_images/practice_img/02_0.png' class=''></img></div>\n\n        </div>","response":null,"trial_type":"html-keyboard-response","trial_index":14,"time_elapsed":44561,"internal_node_id":"0.0-3.0-3.2"},{"rt":11589,"stimulus":"<p style='font-size: 40px'>The practice session is over. The experiment begin now!</p> <p>Press any key to begin.</p>","response":" ","trial_type":"html-keyboard-response","trial_index":15,"time_elapsed":56151,"internal_node_id":"0.0-4.0"},{"rt":1686,"stimulus":"<h1 style='font-size: 60px'>New Rule!</h1> <p>Press any key to begin.</p>","response":" ","trial_type":"html-keyboard-response","trial_index":16,"time_elapsed":57837,"internal_node_id":"0.0-5.0"},{"rt":null,"trial_type":"image-click","trial_index":17,"time_elapsed":57839,"internal_node_id":"0.0-6.0-0.0"},{"rt":9520,"response":2,"all_choices":["../static/human_exp_images/task_pos/00_2.png","../static/human_exp_images/task_pos/00_0.png","../static/human_exp_images/task_pos/00_3.png","../static/human_exp_images/task_pos/00_1.png"],"task":"response","correct_response":2,"shuffled_array":[2,0,3,1],"trial_type":"image-click","trial_index":18,"time_elapsed":67364,"internal_node_id":"0.0-6.0-1.0","mouse_tracking_data":[{"x":709,"y":513,"t":1852,"event":"mousemove"},{"x":722,"y":513,"t":1854,"event":"mousemove"},{"x":800,"y":513,"t":1870,"event":"mousemove"},{"x":856,"y":499,"t":1887,"event":"mousemove"},{"x":961,"y":472,"t":1903,"event":"mousemove"},{"x":1053,"y":447,"t":1920,"event":"mousemove"},{"x":1117,"y":429,"t":1936,"event":"mousemove"},{"x":1155,"y":420,"t":1953,"event":"mousemove"},{"x":1181,"y":415,"t":1970,"event":"mousemove"},{"x":1212,"y":408,"t":1987,"event":"mousemove"},{"x":1228,"y":404,"t":2003,"event":"mousemove"},{"x":1255,"y":398,"t":2020,"event":"mousemove"},{"x":1280,"y":393,"t":2038,"event":"mousemove"},{"x":1648,"y":406,"t":5057,"event":"mousemove"},{"x":1596,"y":423,"t":5075,"event":"mousemove"},{"x":1519,"y":441,"t":5091,"event":"mousemove"},{"x":1439,"y":458,"t":5108,"event":"mousemove"},{"x":1331,"y":478,"t":5124,"event":"mousemove"},{"x":1229,"y":495,"t":5141,"event":"mousemove"},{"x":1142,"y":508,"t":5157,"event":"mousemove"},{"x":1086,"y":516,"t":5175,"event":"mousemove"},{"x":1024,"y":520,"t":5191,"event":"mousemove"},{"x":981,"y":520,"t":5207,"event":"mousemove"},{"x":953,"y":520,"t":5225,"event":"mousemove"},{"x":945,"y":520,"t":5241,"event":"mousemove"},{"x":934,"y":520,"t":5258,"event":"mousemove"},{"x":926,"y":520,"t":5275,"event":"mousemove"},{"x":909,"y":520,"t":5291,"event":"mousemove"},{"x":892,"y":520,"t":5308,"event":"mousemove"},{"x":878,"y":520,"t":5324,"event":"mousemove"},{"x":863,"y":520,"t":5341,"event":"mousemove"},{"x":852,"y":518,"t":5357,"event":"mousemove"},{"x":837,"y":511,"t":5375,"event":"mousemove"},{"x":825,"y":503,"t":5391,"event":"mousemove"},{"x":808,"y":489,"t":5407,"event":"mousemove"},{"x":795,"y":474,"t":5425,"event":"mousemove"},{"x":786,"y":463,"t":5441,"event":"mousemove"},{"x":781,"y":455,"t":5458,"event":"mousemove"},{"x":777,"y":449,"t":5475,"event":"mousemove"},{"x":777,"y":444,"t":5491,"event":"mousemove"},{"x":777,"y":443,"t":5508,"event":"mousemove"},{"x":777,"y":441,"t":5525,"event":"mousemove"},{"x":777,"y":439,"t":5542,"event":"mousemove"},{"x":777,"y":438,"t":5557,"event":"mousemove"},{"x":773,"y":438,"t":8883,"event":"mousemove"},{"x":771,"y":438,"t":8885,"event":"mousemove"},{"x":759,"y":441,"t":8901,"event":"mousemove"},{"x":747,"y":449,"t":8919,"event":"mousemove"},{"x":740,"y":458,"t":8934,"event":"mousemove"},{"x":729,"y":470,"t":8951,"event":"mousemove"},{"x":724,"y":480,"t":8968,"event":"mousemove"},{"x":719,"y":487,"t":8985,"event":"mousemove"},{"x":714,"y":494,"t":9002,"event":"mousemove"},{"x":708,"y":497,"t":9018,"event":"mousemove"},{"x":705,"y":502,"t":9035,"event":"mousemove"},{"x":698,"y":512,"t":9051,"event":"mousemove"},{"x":691,"y":519,"t":9069,"event":"mousemove"},{"x":686,"y":526,"t":9086,"event":"mousemove"},{"x":683,"y":531,"t":9102,"event":"mousemove"},{"x":678,"y":536,"t":9118,"event":"mousemove"},{"x":674,"y":542,"t":9135,"event":"mousemove"},{"x":667,"y":548,"t":9152,"event":"mousemove"},{"x":661,"y":557,"t":9169,"event":"mousemove"},{"x":654,"y":565,"t":9186,"event":"mousemove"},{"x":648,"y":571,"t":9202,"event":"mousemove"},{"x":643,"y":579,"t":9218,"event":"mousemove"},{"x":640,"y":586,"t":9235,"event":"mousemove"},{"x":635,"y":595,"t":9251,"event":"mousemove"},{"x":629,"y":606,"t":9268,"event":"mousemove"},{"x":624,"y":616,"t":9286,"event":"mousemove"},{"x":621,"y":621,"t":9302,"event":"mousemove"},{"x":619,"y":625,"t":9319,"event":"mousemove"},{"x":619,"y":627,"t":9335,"event":"mousemove"},{"x":619,"y":628,"t":9355,"event":"mousemove"},{"x":617,"y":628,"t":9392,"event":"mousemove"}],"mouse_tracking_targets":{},"correct":true},{"rt":2799,"stimulus":"<p>How confident are you about your choice ?</p>","slider_start":50,"response":67,"trial_type":"html-slider-response","trial_index":19,"time_elapsed":70165,"internal_node_id":"0.0-6.0-2.0"},{"rt":null,"stimulus":"\n        <div id='jspsych-image' style='position: relative; width: min(80vw, 80vh); height: min(80vw, 80vh);'>\n                \n                <div style='position: absolute; top: 40%; left: 30%; bottom: 40%; right: 30%;'><h1 style='font-size: 60px; color: green;'>Correct!</h1></div>\n                \n                <div class='jspsych-image' id='jspsych-image-0' data-choice='0' style='top: 0;     left: 0;'><img style=\"width: 100%; height: 100%;\" src='../static/human_exp_images/task_pos/00_2.png' class=''></img></div>\n                <div class='jspsych-image' id='jspsych-image-1' data-choice='1' style='top: 0;     right: 0;'><img style=\"width: 100%; height: 100%;\" src='../static/human_exp_images/task_pos/00_0.png' class=''></img></div>\n                <div class='jspsych-image' id='jspsych-image-2' data-choice='2' style='bottom: 0;  left: 0;'><img style=\"width: 100%; height: 100%;\" src='../static/human_exp_images/task_pos/00_3.png' class='correct-choice'></img></div>\n                <div class='jspsych-image' id='jspsych-image-3' data-choice='3' style='bottom: 0;  right: 0;'><img style=\"width: 100%; height: 100%;\" src='../static/human_exp_images/task_pos/00_1.png' class=''></img></div>\n\n        </div>","response":null,"trial_type":"html-keyboard-response","trial_index":20,"time_elapsed":71667,"internal_node_id":"0.0-6.0-3.0"},{"rt":null,"trial_type":"image-click","trial_index":21,"time_elapsed":72959,"internal_node_id":"0.0-6.0-0.1"},{"rt":6118,"response":1,"all_choices":["../static/human_exp_images/task_pos/01_0.png","../static/human_exp_images/task_pos/01_3.png","../static/human_exp_images/task_pos/01_1.png","../static/human_exp_images/task_pos/01_2.png"],"task":"response","correct_response":1,"shuffled_array":[0,3,1,2],"trial_type":"image-click","trial_index":22,"time_elapsed":79082,"internal_node_id":"0.0-6.0-1.1","mouse_tracking_data":[{"x":809,"y":546,"t":1,"event":"mousemove"},{"x":809,"y":540,"t":1,"event":"mousemove"},{"x":809,"y":529,"t":12,"event":"mousemove"},{"x":809,"y":503,"t":29,"event":"mousemove"},{"x":809,"y":481,"t":45,"event":"mousemove"},{"x":811,"y":470,"t":62,"event":"mousemove"},{"x":813,"y":463,"t":78,"event":"mousemove"},{"x":813,"y":462,"t":96,"event":"mousemove"},{"x":813,"y":460,"t":120,"event":"mousemove"},{"x":814,"y":460,"t":148,"event":"mousemove"},{"x":814,"y":458,"t":163,"event":"mousemove"},{"x":816,"y":458,"t":179,"event":"mousemove"},{"x":816,"y":460,"t":3577,"event":"mousemove"},{"x":814,"y":460,"t":3586,"event":"mousemove"},{"x":814,"y":461,"t":3588,"event":"mousemove"},{"x":816,"y":461,"t":3749,"event":"mousemove"},{"x":818,"y":461,"t":3753,"event":"mousemove"},{"x":823,"y":461,"t":3757,"event":"mousemove"},{"x":826,"y":461,"t":3766,"event":"mousemove"},{"x":828,"y":461,"t":3769,"event":"mousemove"},{"x":840,"y":451,"t":3785,"event":"mousemove"},{"x":852,"y":437,"t":3802,"event":"mousemove"},{"x":859,"y":430,"t":3819,"event":"mousemove"},{"x":866,"y":420,"t":3836,"event":"mousemove"},{"x":873,"y":415,"t":3851,"event":"mousemove"},{"x":876,"y":410,"t":3868,"event":"mousemove"},{"x":880,"y":406,"t":3886,"event":"mousemove"},{"x":881,"y":405,"t":3902,"event":"mousemove"},{"x":883,"y":403,"t":3920,"event":"mousemove"},{"x":885,"y":403,"t":3935,"event":"mousemove"},{"x":885,"y":401,"t":3966,"event":"mousemove"},{"x":885,"y":400,"t":5049,"event":"mousemove"},{"x":885,"y":398,"t":5593,"event":"mousemove"},{"x":885,"y":397,"t":5665,"event":"mousemove"},{"x":885,"y":395,"t":5692,"event":"mousemove"},{"x":887,"y":395,"t":5693,"event":"mousemove"},{"x":890,"y":393,"t":5710,"event":"mousemove"},{"x":899,"y":388,"t":5726,"event":"mousemove"},{"x":909,"y":383,"t":5742,"event":"mousemove"},{"x":919,"y":376,"t":5760,"event":"mousemove"},{"x":928,"y":369,"t":5776,"event":"mousemove"},{"x":936,"y":362,"t":5792,"event":"mousemove"},{"x":941,"y":356,"t":5808,"event":"mousemove"},{"x":948,"y":350,"t":5826,"event":"mousemove"},{"x":958,"y":340,"t":5844,"event":"mousemove"},{"x":967,"y":330,"t":5860,"event":"mousemove"},{"x":978,"y":319,"t":5876,"event":"mousemove"},{"x":990,"y":310,"t":5892,"event":"mousemove"},{"x":1000,"y":302,"t":5910,"event":"mousemove"},{"x":1014,"y":295,"t":5926,"event":"mousemove"},{"x":1026,"y":288,"t":5943,"event":"mousemove"},{"x":1031,"y":286,"t":5959,"event":"mousemove"},{"x":1032,"y":285,"t":5977,"event":"mousemove"}],"mouse_tracking_targets":{},"correct":true},{"rt":1937,"stimulus":"<p>How confident are you about your choice ?</p>","slider_start":50,"response":69,"trial_type":"html-slider-response","trial_index":23,"time_elapsed":81022,"internal_node_id":"0.0-6.0-2.1"},{"rt":null,"stimulus":"\n        <div id='jspsych-image' style='position: relative; width: min(80vw, 80vh); height: min(80vw, 80vh);'>\n                \n                <div style='position: absolute; top: 40%; left: 30%; bottom: 40%; right: 30%;'><h1 style='font-size: 60px; color: green;'>Correct!</h1></div>\n                \n                <div class='jspsych-image' id='jspsych-image-0' data-choice='0' style='top: 0;     left: 0;'><img style=\"width: 100%; height: 100%;\" src='../static/human_exp_images/task_pos/01_0.png' class=''></img></div>\n                <div class='jspsych-image' id='jspsych-image-1' data-choice='1' style='top: 0;     right: 0;'><img style=\"width: 100%; height: 100%;\" src='../static/human_exp_images/task_pos/01_3.png' class='correct-choice'></img></div>\n                <div class='jspsych-image' id='jspsych-image-2' data-choice='2' style='bottom: 0;  left: 0;'><img style=\"width: 100%; height: 100%;\" src='../static/human_exp_images/task_pos/01_1.png' class=''></img></div>\n                <div class='jspsych-image' id='jspsych-image-3' data-choice='3' style='bottom: 0;  right: 0;'><img style=\"width: 100%; height: 100%;\" src='../static/human_exp_images/task_pos/01_2.png' class=''></img></div>\n\n        </div>","response":null,"trial_type":"html-keyboard-response","trial_index":24,"time_elapsed":82524,"internal_node_id":"0.0-6.0-3.1"},{"rt":null,"trial_type":"image-click","trial_index":25,"time_elapsed":84754,"internal_node_id":"0.0-6.0-0.2"},{"rt":2301,"response":3,"all_choices":["../static/human_exp_images/task_pos/02_0.png","../static/human_exp_images/task_pos/02_2.png","../static/human_exp_images/task_pos/02_1.png","../static/human_exp_images/task_pos/02_3.png"],"task":"response","correct_response":3,"shuffled_array":[0,2,1,3],"trial_type":"image-click","trial_index":26,"time_elapsed":87069,"internal_node_id":"0.0-6.0-1.2","mouse_tracking_data":[{"x":823,"y":540,"t":2,"event":"mousemove"},{"x":824,"y":516,"t":3,"event":"mousemove"},{"x":824,"y":499,"t":19,"event":"mousemove"},{"x":824,"y":491,"t":37,"event":"mousemove"},{"x":824,"y":487,"t":53,"event":"mousemove"},{"x":824,"y":485,"t":69,"event":"mousemove"},{"x":826,"y":485,"t":470,"event":"mousemove"},{"x":828,"y":485,"t":498,"event":"mousemove"},{"x":829,"y":485,"t":518,"event":"mousemove"},{"x":831,"y":489,"t":534,"event":"mousemove"},{"x":833,"y":491,"t":550,"event":"mousemove"},{"x":833,"y":492,"t":568,"event":"mousemove"},{"x":835,"y":494,"t":584,"event":"mousemove"},{"x":836,"y":496,"t":600,"event":"mousemove"},{"x":838,"y":497,"t":616,"event":"mousemove"},{"x":840,"y":497,"t":724,"event":"mousemove"},{"x":840,"y":499,"t":1574,"event":"mousemove"},{"x":840,"y":501,"t":1577,"event":"mousemove"},{"x":840,"y":502,"t":1584,"event":"mousemove"},{"x":840,"y":504,"t":1591,"event":"mousemove"},{"x":840,"y":507,"t":1600,"event":"mousemove"},{"x":840,"y":509,"t":1602,"event":"mousemove"},{"x":840,"y":514,"t":1609,"event":"mousemove"},{"x":840,"y":516,"t":1613,"event":"mousemove"},{"x":840,"y":521,"t":1618,"event":"mousemove"},{"x":840,"y":524,"t":1623,"event":"mousemove"},{"x":840,"y":530,"t":1628,"event":"mousemove"},{"x":840,"y":533,"t":1629,"event":"mousemove"},{"x":840,"y":547,"t":1645,"event":"mousemove"},{"x":840,"y":555,"t":1662,"event":"mousemove"},{"x":840,"y":567,"t":1679,"event":"mousemove"},{"x":840,"y":576,"t":1696,"event":"mousemove"},{"x":840,"y":579,"t":1712,"event":"mousemove"},{"x":840,"y":583,"t":1730,"event":"mousemove"},{"x":841,"y":584,"t":1745,"event":"mousemove"},{"x":841,"y":586,"t":1763,"event":"mousemove"},{"x":845,"y":591,"t":1779,"event":"mousemove"},{"x":850,"y":595,"t":1796,"event":"mousemove"},{"x":853,"y":602,"t":1812,"event":"mousemove"},{"x":862,"y":608,"t":1829,"event":"mousemove"},{"x":870,"y":617,"t":1846,"event":"mousemove"},{"x":877,"y":622,"t":1861,"event":"mousemove"},{"x":881,"y":625,"t":1879,"event":"mousemove"},{"x":889,"y":631,"t":1895,"event":"mousemove"},{"x":903,"y":637,"t":1913,"event":"mousemove"},{"x":913,"y":643,"t":1930,"event":"mousemove"},{"x":925,"y":646,"t":1945,"event":"mousemove"},{"x":932,"y":648,"t":1962,"event":"mousemove"},{"x":937,"y":649,"t":1979,"event":"mousemove"},{"x":942,"y":649,"t":1996,"event":"mousemove"},{"x":947,"y":651,"t":2012,"event":"mousemove"},{"x":951,"y":653,"t":2029,"event":"mousemove"},{"x":954,"y":653,"t":2046,"event":"mousemove"},{"x":958,"y":653,"t":2062,"event":"mousemove"},{"x":964,"y":655,"t":2080,"event":"mousemove"},{"x":971,"y":655,"t":2095,"event":"mousemove"},{"x":975,"y":655,"t":2114,"event":"mousemove"},{"x":976,"y":655,"t":2129,"event":"mousemove"},{"x":978,"y":655,"t":2147,"event":"mousemove"},{"x":980,"y":655,"t":2165,"event":"mousemove"}],"mouse_tracking_targets":{},"correct":true},{"rt":2966,"stimulus":"<p>How confident are you about your choice ?</p>","slider_start":50,"response":71,"trial_type":"html-slider-response","trial_index":27,"time_elapsed":90037,"internal_node_id":"0.0-6.0-2.2"},{"rt":null,"stimulus":"\n        <div id='jspsych-image' style='position: relative; width: min(80vw, 80vh); height: min(80vw, 80vh);'>\n                \n                <div style='position: absolute; top: 40%; left: 30%; bottom: 40%; right: 30%;'><h1 style='font-size: 60px; color: green;'>Correct!</h1></div>\n                \n                <div class='jspsych-image' id='jspsych-image-0' data-choice='0' style='top: 0;     left: 0;'><img style=\"width: 100%; height: 100%;\" src='../static/human_exp_images/task_pos/02_0.png' class=''></img></div>\n                <div class='jspsych-image' id='jspsych-image-1' data-choice='1' style='top: 0;     right: 0;'><img style=\"width: 100%; height: 100%;\" src='../static/human_exp_images/task_pos/02_2.png' class=''></img></div>\n                <div class='jspsych-image' id='jspsych-image-2' data-choice='2' style='bottom: 0;  left: 0;'><img style=\"width: 100%; height: 100%;\" src='../static/human_exp_images/task_pos/02_1.png' class=''></img></div>\n                <div class='jspsych-image' id='jspsych-image-3' data-choice='3' style='bottom: 0;  right: 0;'><img style=\"width: 100%; height: 100%;\" src='../static/human_exp_images/task_pos/02_3.png' class='correct-choice'></img></div>\n\n        </div>","response":null,"trial_type":"html-keyboard-response","trial_index":28,"time_elapsed":91540,"internal_node_id":"0.0-6.0-3.2"},{"rt":3659,"stimulus":"<p>You responded correctly on 83% of the trials.</p>\n    <p>Your average response time was 5841ms.</p>\n    <p>Press any key to complete the experiment. Thank you!</p>","response":" ","trial_type":"html-keyboard-response","trial_index":29,"time_elapsed":95202,"internal_node_id":"0.0-7.0","interactions":"[]"}]