[{"success":true,"timeout":false,"failed_images":[],"failed_audio":[],"failed_video":[],"trial_type":"preload","trial_index":0,"time_elapsed":88,"internal_node_id":"0.0-0.0"},{"rt":1614,"stimulus":"<p style='font-size: 40px'>Welcome to the experiment.</p><p style='font-size: 30px'>Press any key to begin.</p>","response":" ","trial_type":"html-keyboard-response","trial_index":1,"time_elapsed":1703,"internal_node_id":"0.0-1.0"},{"rt":780,"stimulus":"\n    <p>In this experiment, 4 images will appear on the screen. 3 out of 4 images were generated with a certain rule while one image (the odd one out) does not respect this rule.</p>\n    <p>Select the odd one out by clicking on the image.</p>\n    <p>Following your choice, you will be asked to rate how confident you were about your choice on a scale from 1 to 100. Then, you will receive feedback on the trial.</p>\n    <p>For each rule you will perform 21 trials. You will be notified at each rule change.</p>\n    <p>The following 3 trials will allow you to get familiar with the odd-one-out task. The experiment starts after this practice session.</p>\n    \n    <p>Press any button to continue</p>\n    <div style='margin: auto; position: relative; width: 400px; height: 400px;'>\n        <div style='position: absolute; top: 0;     left: 0; '><img src='../static/img/square.png'></img></div>\n        <div style='position: absolute; top: 0;     right: 0;'><img src='../static/img/square.png'></img></div>\n        <div style='position: absolute; bottom: 0;  left: 0; '><img src='../static/img/square.png'></img></div>\n        <div style='position: absolute; bottom: 0;  right: 0;'><img src='../static/img/square.png'></img></div>\n    </div>\n","response":" ","trial_type":"html-keyboard-response","trial_index":2,"time_elapsed":2485,"internal_node_id":"0.0-2.0"},{"rt":null,"trial_type":"image-click","trial_index":3,"time_elapsed":5610,"internal_node_id":"0.0-3.0-0.0"},{"rt":1200,"response":1,"all_choices":["../static/human_exp_images/practice_img/00_0.png","../static/human_exp_images/practice_img/00_3.png","../static/human_exp_images/practice_img/00_2.png","../static/human_exp_images/practice_img/00_1.png"],"task":"response","correct_response":1,"shuffled_array":[0,3,2,1],"catch_trial":false,"trial_type":"image-click","trial_index":4,"time_elapsed":6813,"internal_node_id":"0.0-3.0-1.0","mouse_tracking_data":[{"x":878,"y":483,"t":0,"event":"mousemove"},{"x":892,"y":480,"t":15,"event":"mousemove"},{"x":904,"y":476,"t":32,"event":"mousemove"},{"x":914,"y":473,"t":48,"event":"mousemove"},{"x":919,"y":473,"t":65,"event":"mousemove"},{"x":921,"y":473,"t":83,"event":"mousemove"},{"x":929,"y":469,"t":99,"event":"mousemove"},{"x":933,"y":469,"t":116,"event":"mousemove"},{"x":934,"y":469,"t":132,"event":"mousemove"},{"x":934,"y":468,"t":451,"event":"mousemove"},{"x":936,"y":466,"t":648,"event":"mousemove"},{"x":938,"y":464,"t":656,"event":"mousemove"},{"x":939,"y":463,"t":661,"event":"mousemove"},{"x":941,"y":461,"t":666,"event":"mousemove"},{"x":943,"y":461,"t":674,"event":"mousemove"},{"x":945,"y":459,"t":682,"event":"mousemove"},{"x":945,"y":458,"t":701,"event":"mousemove"},{"x":946,"y":458,"t":710,"event":"mousemove"},{"x":946,"y":456,"t":720,"event":"mousemove"},{"x":948,"y":456,"t":756,"event":"mousemove"},{"x":950,"y":454,"t":765,"event":"mousemove"},{"x":951,"y":454,"t":766,"event":"mousemove"},{"x":960,"y":447,"t":782,"event":"mousemove"},{"x":968,"y":442,"t":800,"event":"mousemove"},{"x":982,"y":432,"t":816,"event":"mousemove"},{"x":998,"y":416,"t":833,"event":"mousemove"},{"x":1014,"y":402,"t":849,"event":"mousemove"},{"x":1028,"y":390,"t":866,"event":"mousemove"},{"x":1050,"y":371,"t":883,"event":"mousemove"},{"x":1060,"y":361,"t":899,"event":"mousemove"},{"x":1075,"y":349,"t":916,"event":"mousemove"},{"x":1087,"y":339,"t":932,"event":"mousemove"},{"x":1098,"y":327,"t":949,"event":"mousemove"},{"x":1108,"y":317,"t":966,"event":"mousemove"},{"x":1118,"y":305,"t":983,"event":"mousemove"},{"x":1127,"y":293,"t":1000,"event":"mousemove"},{"x":1132,"y":288,"t":1016,"event":"mousemove"},{"x":1137,"y":281,"t":1033,"event":"mousemove"},{"x":1140,"y":276,"t":1049,"event":"mousemove"},{"x":1144,"y":272,"t":1066,"event":"mousemove"},{"x":1146,"y":270,"t":1082,"event":"mousemove"}],"mouse_tracking_targets":{},"correct":true},{"rt":1812,"stimulus":"<p>How confident are you about your choice ?</p>","slider_start":50,"response":79,"trial_type":"html-slider-response","trial_index":5,"time_elapsed":8627,"internal_node_id":"0.0-3.0-2.0"},{"rt":null,"stimulus":"\n        <div id='jspsych-image' style='position: relative; width: min(80vw, 80vh); height: min(80vw, 80vh);'>\n                \n                <div style='position: absolute; top: 40%; left: 30%; bottom: 40%; right: 30%;'><h1 style='font-size: 60px; color: green;'>Correct!</h1></div>\n                \n                <div class='jspsych-image' id='jspsych-image-0' data-choice='0' style='top: 0;     left: 0;'><img style=\"width: 100%; height: 100%;\" src='../static/human_exp_images/practice_img/00_0.png' class=''></img></div>\n                <div class='jspsych-image' id='jspsych-image-1' data-choice='1' style='top: 0;     right: 0;'><img style=\"width: 100%; height: 100%;\" src='../static/human_exp_images/practice_img/00_3.png' class='correct-choice'></img></div>\n                <div class='jspsych-image' id='jspsych-image-2' data-choice='2' style='bottom: 0;  left: 0;'><img style=\"width: 100%; height: 100%;\" src='../static/human_exp_images/practice_img/00_2.png' class=''></img></div>\n                <div class='jspsych-image' id='jspsych-image-3' data-choice='3' style='bottom: 0;  right: 0;'><img style=\"width: 100%; height: 100%;\" src='../static/human_exp_images/practice_img/00_1.png' class=''></img></div>\n\n        </div>","response":null,"trial_type":"html-keyboard-response","trial_index":6,"time_elapsed":10132,"internal_node_id":"0.0-3.0-3.0"},{"rt":null,"trial_type":"image-click","trial_index":7,"time_elapsed":11042,"internal_node_id":"0.0-3.0-0.1"},{"rt":2270,"response":2,"all_choices":["../static/human_exp_images/practice_img/01_0.png","../static/human_exp_images/practice_img/01_2.png","../static/human_exp_images/practice_img/01_3.png","../static/human_exp_images/practice_img/01_1.png"],"task":"response","correct_response":2,"shuffled_array":[0,2,3,1],"catch_trial":false,"trial_type":"image-click","trial_index":8,"time_elapsed":13313,"internal_node_id":"0.0-3.0-1.1","mouse_tracking_data":[{"x":955,"y":540,"t":0,"event":"mousemove"},{"x":952,"y":524,"t":14,"event":"mousemove"},{"x":948,"y":510,"t":31,"event":"mousemove"},{"x":948,"y":500,"t":49,"event":"mousemove"},{"x":948,"y":488,"t":65,"event":"mousemove"},{"x":948,"y":483,"t":82,"event":"mousemove"},{"x":948,"y":475,"t":98,"event":"mousemove"},{"x":948,"y":468,"t":115,"event":"mousemove"},{"x":947,"y":464,"t":131,"event":"mousemove"},{"x":947,"y":463,"t":148,"event":"mousemove"},{"x":947,"y":461,"t":165,"event":"mousemove"},{"x":945,"y":461,"t":1670,"event":"mousemove"},{"x":944,"y":461,"t":1681,"event":"mousemove"},{"x":942,"y":461,"t":1690,"event":"mousemove"},{"x":940,"y":461,"t":1697,"event":"mousemove"},{"x":938,"y":461,"t":1701,"event":"mousemove"},{"x":935,"y":461,"t":1706,"event":"mousemove"},{"x":930,"y":463,"t":1714,"event":"mousemove"},{"x":930,"y":466,"t":1715,"event":"mousemove"},{"x":923,"y":473,"t":1731,"event":"mousemove"},{"x":908,"y":490,"t":1748,"event":"mousemove"},{"x":896,"y":506,"t":1764,"event":"mousemove"},{"x":883,"y":518,"t":1781,"event":"mousemove"},{"x":871,"y":532,"t":1797,"event":"mousemove"},{"x":860,"y":544,"t":1814,"event":"mousemove"},{"x":852,"y":555,"t":1832,"event":"mousemove"},{"x":845,"y":562,"t":1848,"event":"mousemove"},{"x":838,"y":571,"t":1865,"event":"mousemove"},{"x":831,"y":578,"t":1881,"event":"mousemove"},{"x":822,"y":585,"t":1898,"event":"mousemove"},{"x":815,"y":593,"t":1914,"event":"mousemove"},{"x":805,"y":604,"t":1931,"event":"mousemove"},{"x":798,"y":611,"t":1949,"event":"mousemove"},{"x":786,"y":621,"t":1965,"event":"mousemove"},{"x":777,"y":631,"t":1982,"event":"mousemove"},{"x":767,"y":641,"t":1998,"event":"mousemove"},{"x":760,"y":652,"t":2015,"event":"mousemove"},{"x":755,"y":662,"t":2031,"event":"mousemove"},{"x":750,"y":667,"t":2048,"event":"mousemove"},{"x":745,"y":675,"t":2065,"event":"mousemove"},{"x":742,"y":681,"t":2082,"event":"mousemove"},{"x":742,"y":684,"t":2099,"event":"mousemove"},{"x":740,"y":686,"t":2115,"event":"mousemove"},{"x":738,"y":686,"t":2189,"event":"mousemove"}],"mouse_tracking_targets":{},"correct":true},{"rt":1880,"stimulus":"<p>How confident are you about your choice ?</p>","slider_start":50,"response":83,"trial_type":"html-slider-response","trial_index":9,"time_elapsed":15196,"internal_node_id":"0.0-3.0-2.1"},{"rt":null,"stimulus":"\n        <div id='jspsych-image' style='position: relative; width: min(80vw, 80vh); height: min(80vw, 80vh);'>\n                \n                <div style='position: absolute; top: 40%; left: 30%; bottom: 40%; right: 30%;'><h1 style='font-size: 60px; color: green;'>Correct!</h1></div>\n                \n                <div class='jspsych-image' id='jspsych-image-0' data-choice='0' style='top: 0;     left: 0;'><img style=\"width: 100%; height: 100%;\" src='../static/human_exp_images/practice_img/01_0.png' class=''></img></div>\n                <div class='jspsych-image' id='jspsych-image-1' data-choice='1' style='top: 0;     right: 0;'><img style=\"width: 100%; height: 100%;\" src='../static/human_exp_images/practice_img/01_2.png' class=''></img></div>\n                <div class='jspsych-image' id='jspsych-image-2' data-choice='2' style='bottom: 0;  left: 0;'><img style=\"width: 100%; height: 100%;\" src='../static/human_exp_images/practice_img/01_3.png' class='correct-choice'></img></div>\n                <div class='jspsych-image' id='jspsych-image-3' data-choice='3' style='bottom: 0;  right: 0;'><img style=\"width: 100%; height: 100%;\" src='../static/human_exp_images/practice_img/01_1.png' class=''></img></div>\n\n        </div>","response":null,"trial_type":"html-keyboard-response","trial_index":10,"time_elapsed":16701,"internal_node_id":"0.0-3.0-3.1"},{"rt":null,"trial_type":"image-click","trial_index":11,"time_elapsed":16706,"internal_node_id":"0.0-3.0-0.2"},{"rt":2220,"response":0,"all_choices":["../static/human_exp_images/practice_img/02_3.png","../static/human_exp_images/practice_img/02_0.png","../static/human_exp_images/practice_img/02_1.png","../static/human_exp_images/practice_img/02_2.png"],"task":"response","correct_response":0,"shuffled_array":[3,0,1,2],"catch_trial":false,"trial_type":"image-click","trial_index":12,"time_elapsed":18931,"internal_node_id":"0.0-3.0-1.2","mouse_tracking_data":[{"x":963,"y":505,"t":10,"event":"mousemove"},{"x":963,"y":503,"t":223,"event":"mousemove"},{"x":963,"y":502,"t":1545,"event":"mousemove"},{"x":963,"y":500,"t":1547,"event":"mousemove"},{"x":963,"y":496,"t":1553,"event":"mousemove"},{"x":963,"y":495,"t":1558,"event":"mousemove"},{"x":963,"y":490,"t":1562,"event":"mousemove"},{"x":963,"y":488,"t":1564,"event":"mousemove"},{"x":948,"y":473,"t":1580,"event":"mousemove"},{"x":938,"y":461,"t":1598,"event":"mousemove"},{"x":923,"y":446,"t":1614,"event":"mousemove"},{"x":914,"y":431,"t":1631,"event":"mousemove"},{"x":901,"y":413,"t":1647,"event":"mousemove"},{"x":883,"y":386,"t":1664,"event":"mousemove"},{"x":872,"y":366,"t":1681,"event":"mousemove"},{"x":855,"y":342,"t":1698,"event":"mousemove"},{"x":845,"y":328,"t":1715,"event":"mousemove"},{"x":835,"y":311,"t":1731,"event":"mousemove"},{"x":818,"y":283,"t":1748,"event":"mousemove"},{"x":811,"y":274,"t":1764,"event":"mousemove"},{"x":806,"y":267,"t":1781,"event":"mousemove"},{"x":804,"y":264,"t":1798,"event":"mousemove"},{"x":801,"y":259,"t":1815,"event":"mousemove"},{"x":796,"y":254,"t":1831,"event":"mousemove"},{"x":793,"y":250,"t":1848,"event":"mousemove"},{"x":791,"y":247,"t":1864,"event":"mousemove"},{"x":787,"y":245,"t":1881,"event":"mousemove"},{"x":787,"y":244,"t":1900,"event":"mousemove"},{"x":786,"y":244,"t":1914,"event":"mousemove"},{"x":784,"y":244,"t":2137,"event":"mousemove"}],"mouse_tracking_targets":{},"correct":true},{"rt":2727,"stimulus":"<p>How confident are you about your choice ?</p>","slider_start":50,"response":76,"trial_type":"html-slider-response","trial_index":13,"time_elapsed":21658,"internal_node_id":"0.0-3.0-2.2"},{"rt":null,"stimulus":"\n        <div id='jspsych-image' style='position: relative; width: min(80vw, 80vh); height: min(80vw, 80vh);'>\n                \n                <div style='position: absolute; top: 40%; left: 30%; bottom: 40%; right: 30%;'><h1 style='font-size: 60px; color: green;'>Correct!</h1></div>\n                \n                <div class='jspsych-image' id='jspsych-image-0' data-choice='0' style='top: 0;     left: 0;'><img style=\"width: 100%; height: 100%;\" src='../static/human_exp_images/practice_img/02_3.png' class='correct-choice'></img></div>\n                <div class='jspsych-image' id='jspsych-image-1' data-choice='1' style='top: 0;     right: 0;'><img style=\"width: 100%; height: 100%;\" src='../static/human_exp_images/practice_img/02_0.png' class=''></img></div>\n                <div class='jspsych-image' id='jspsych-image-2' data-choice='2' style='bottom: 0;  left: 0;'><img style=\"width: 100%; height: 100%;\" src='../static/human_exp_images/practice_img/02_1.png' class=''></img></div>\n                <div class='jspsych-image' id='jspsych-image-3' data-choice='3' style='bottom: 0;  right: 0;'><img style=\"width: 100%; height: 100%;\" src='../static/human_exp_images/practice_img/02_2.png' class=''></img></div>\n\n        </div>","response":null,"trial_type":"html-keyboard-response","trial_index":14,"time_elapsed":23162,"internal_node_id":"0.0-3.0-3.2"},{"rt":6452,"stimulus":"<p style='font-size: 40px'>The practice session is over. The experiment begin now!</p> \n                <p>Please take pauses on only at the \"new rule\" pages.</p> \n                <p>Press any key to begin.</p>","response":" ","trial_type":"html-keyboard-response","trial_index":15,"time_elapsed":29615,"internal_node_id":"0.0-4.0"},{"rt":3317,"stimulus":"<h1 style='font-size: 60px'>New Rule!</h1> <p>Press any key to begin.</p>","response":" ","trial_type":"html-keyboard-response","trial_index":16,"time_elapsed":32933,"internal_node_id":"0.0-5.0"},{"rt":null,"trial_type":"image-click","trial_index":17,"time_elapsed":33937,"internal_node_id":"0.0-6.0-0.0"},{"rt":1826,"response":1,"all_choices":["../static/human_exp_images/task_size/00_2.png","../static/human_exp_images/task_size/00_3.png","../static/human_exp_images/task_size/00_1.png","../static/human_exp_images/task_size/00_0.png"],"task":"response","correct_response":1,"shuffled_array":[2,3,1,0],"catch_trial":false,"trial_type":"image-click","trial_index":18,"time_elapsed":35763,"internal_node_id":"0.0-6.0-1.0","mouse_tracking_data":[{"x":967,"y":541,"t":1,"event":"mousemove"},{"x":967,"y":537,"t":1,"event":"mousemove"},{"x":965,"y":525,"t":16,"event":"mousemove"},{"x":965,"y":506,"t":33,"event":"mousemove"},{"x":963,"y":492,"t":49,"event":"mousemove"},{"x":963,"y":478,"t":66,"event":"mousemove"},{"x":963,"y":468,"t":82,"event":"mousemove"},{"x":963,"y":460,"t":100,"event":"mousemove"},{"x":963,"y":449,"t":117,"event":"mousemove"},{"x":963,"y":444,"t":133,"event":"mousemove"},{"x":963,"y":441,"t":150,"event":"mousemove"},{"x":963,"y":439,"t":167,"event":"mousemove"},{"x":963,"y":438,"t":1008,"event":"mousemove"},{"x":963,"y":436,"t":1014,"event":"mousemove"},{"x":963,"y":434,"t":1024,"event":"mousemove"},{"x":963,"y":432,"t":1036,"event":"mousemove"},{"x":963,"y":431,"t":1041,"event":"mousemove"},{"x":963,"y":429,"t":1051,"event":"mousemove"},{"x":963,"y":427,"t":1060,"event":"mousemove"},{"x":965,"y":424,"t":1070,"event":"mousemove"},{"x":966,"y":422,"t":1071,"event":"mousemove"},{"x":975,"y":414,"t":1087,"event":"mousemove"},{"x":986,"y":403,"t":1104,"event":"mousemove"},{"x":1006,"y":384,"t":1120,"event":"mousemove"},{"x":1030,"y":366,"t":1137,"event":"mousemove"},{"x":1064,"y":342,"t":1154,"event":"mousemove"},{"x":1083,"y":327,"t":1171,"event":"mousemove"},{"x":1106,"y":306,"t":1187,"event":"mousemove"},{"x":1119,"y":290,"t":1204,"event":"mousemove"},{"x":1127,"y":283,"t":1221,"event":"mousemove"},{"x":1132,"y":279,"t":1237,"event":"mousemove"},{"x":1134,"y":278,"t":1254,"event":"mousemove"},{"x":1137,"y":274,"t":1270,"event":"mousemove"},{"x":1142,"y":269,"t":1288,"event":"mousemove"},{"x":1146,"y":268,"t":1304,"event":"mousemove"},{"x":1153,"y":261,"t":1321,"event":"mousemove"},{"x":1151,"y":261,"t":1497,"event":"mousemove"}],"mouse_tracking_targets":{},"correct":true},{"rt":4000,"stimulus":"<p>How confident are you about your choice ?</p>","slider_start":50,"response":71,"trial_type":"html-slider-response","trial_index":19,"time_elapsed":39766,"internal_node_id":"0.0-6.0-2.0"},{"rt":null,"stimulus":"\n        <div id='jspsych-image' style='position: relative; width: min(80vw, 80vh); height: min(80vw, 80vh);'>\n                \n                <div style='position: absolute; top: 40%; left: 30%; bottom: 40%; right: 30%;'><h1 style='font-size: 60px; color: green;'>Correct!</h1></div>\n                \n                <div class='jspsych-image' id='jspsych-image-0' data-choice='0' style='top: 0;     left: 0;'><img style=\"width: 100%; height: 100%;\" src='../static/human_exp_images/task_size/00_2.png' class=''></img></div>\n                <div class='jspsych-image' id='jspsych-image-1' data-choice='1' style='top: 0;     right: 0;'><img style=\"width: 100%; height: 100%;\" src='../static/human_exp_images/task_size/00_3.png' class='correct-choice'></img></div>\n                <div class='jspsych-image' id='jspsych-image-2' data-choice='2' style='bottom: 0;  left: 0;'><img style=\"width: 100%; height: 100%;\" src='../static/human_exp_images/task_size/00_1.png' class=''></img></div>\n                <div class='jspsych-image' id='jspsych-image-3' data-choice='3' style='bottom: 0;  right: 0;'><img style=\"width: 100%; height: 100%;\" src='../static/human_exp_images/task_size/00_0.png' class=''></img></div>\n\n        </div>","response":null,"trial_type":"html-keyboard-response","trial_index":20,"time_elapsed":41266,"internal_node_id":"0.0-6.0-3.0"},{"rt":null,"trial_type":"image-click","trial_index":21,"time_elapsed":41281,"internal_node_id":"0.0-6.0-0.1"},{"rt":1613,"response":2,"all_choices":["../static/human_exp_images/task_size/01_2.png","../static/human_exp_images/task_size/01_0.png","../static/human_exp_images/task_size/01_3.png","../static/human_exp_images/task_size/01_1.png"],"task":"response","correct_response":2,"shuffled_array":[2,0,3,1],"catch_trial":false,"trial_type":"image-click","trial_index":22,"time_elapsed":42896,"internal_node_id":"0.0-6.0-1.1","mouse_tracking_data":[{"x":974,"y":496,"t":13,"event":"mousemove"},{"x":974,"y":494,"t":45,"event":"mousemove"},{"x":974,"y":493,"t":622,"event":"mousemove"},{"x":970,"y":493,"t":948,"event":"mousemove"},{"x":968,"y":495,"t":951,"event":"mousemove"},{"x":961,"y":498,"t":957,"event":"mousemove"},{"x":960,"y":500,"t":962,"event":"mousemove"},{"x":952,"y":505,"t":966,"event":"mousemove"},{"x":947,"y":508,"t":968,"event":"mousemove"},{"x":925,"y":525,"t":984,"event":"mousemove"},{"x":910,"y":536,"t":1001,"event":"mousemove"},{"x":891,"y":546,"t":1017,"event":"mousemove"},{"x":875,"y":556,"t":1035,"event":"mousemove"},{"x":859,"y":565,"t":1051,"event":"mousemove"},{"x":847,"y":574,"t":1069,"event":"mousemove"},{"x":840,"y":579,"t":1085,"event":"mousemove"},{"x":830,"y":585,"t":1102,"event":"mousemove"},{"x":822,"y":591,"t":1118,"event":"mousemove"},{"x":811,"y":596,"t":1135,"event":"mousemove"},{"x":805,"y":601,"t":1151,"event":"mousemove"},{"x":803,"y":601,"t":1282,"event":"mousemove"},{"x":801,"y":601,"t":1289,"event":"mousemove"}],"mouse_tracking_targets":{},"correct":true},{"rt":1721,"stimulus":"<p>How confident are you about your choice ?</p>","slider_start":50,"response":77,"trial_type":"html-slider-response","trial_index":23,"time_elapsed":44618,"internal_node_id":"0.0-6.0-2.1"},{"rt":null,"stimulus":"\n        <div id='jspsych-image' style='position: relative; width: min(80vw, 80vh); height: min(80vw, 80vh);'>\n                \n                <div style='position: absolute; top: 40%; left: 30%; bottom: 40%; right: 30%;'><h1 style='font-size: 60px; color: green;'>Correct!</h1></div>\n                \n                <div class='jspsych-image' id='jspsych-image-0' data-choice='0' style='top: 0;     left: 0;'><img style=\"width: 100%; height: 100%;\" src='../static/human_exp_images/task_size/01_2.png' class=''></img></div>\n                <div class='jspsych-image' id='jspsych-image-1' data-choice='1' style='top: 0;     right: 0;'><img style=\"width: 100%; height: 100%;\" src='../static/human_exp_images/task_size/01_0.png' class=''></img></div>\n                <div class='jspsych-image' id='jspsych-image-2' data-choice='2' style='bottom: 0;  left: 0;'><img style=\"width: 100%; height: 100%;\" src='../static/human_exp_images/task_size/01_3.png' class='correct-choice'></img></div>\n                <div class='jspsych-image' id='jspsych-image-3' data-choice='3' style='bottom: 0;  right: 0;'><img style=\"width: 100%; height: 100%;\" src='../static/human_exp_images/task_size/01_1.png' class=''></img></div>\n\n        </div>","response":null,"trial_type":"html-keyboard-response","trial_index":24,"time_elapsed":46121,"internal_node_id":"0.0-6.0-3.1"},{"rt":null,"trial_type":"image-click","trial_index":25,"time_elapsed":46123,"internal_node_id":"0.0-6.0-0.2"},{"rt":1004,"response":3,"all_choices":["../static/human_exp_images/task_size/02_2.png","../static/human_exp_images/task_size/02_0.png","../static/human_exp_images/task_size/02_1.png","../static/human_exp_images/task_size/02_3.png"],"task":"response","correct_response":3,"shuffled_array":[2,0,1,3],"catch_trial":false,"trial_type":"image-click","trial_index":26,"time_elapsed":47129,"internal_node_id":"0.0-6.0-1.2","mouse_tracking_data":[{"x":988,"y":458,"t":593,"event":"mousemove"},{"x":994,"y":458,"t":595,"event":"mousemove"},{"x":996,"y":460,"t":597,"event":"mousemove"},{"x":1004,"y":464,"t":613,"event":"mousemove"},{"x":1017,"y":471,"t":630,"event":"mousemove"},{"x":1031,"y":477,"t":646,"event":"mousemove"},{"x":1045,"y":486,"t":663,"event":"mousemove"},{"x":1064,"y":502,"t":679,"event":"mousemove"},{"x":1078,"y":522,"t":696,"event":"mousemove"},{"x":1089,"y":542,"t":713,"event":"mousemove"},{"x":1096,"y":553,"t":729,"event":"mousemove"},{"x":1102,"y":565,"t":746,"event":"mousemove"},{"x":1107,"y":573,"t":762,"event":"mousemove"},{"x":1110,"y":577,"t":780,"event":"mousemove"},{"x":1116,"y":582,"t":795,"event":"mousemove"},{"x":1121,"y":587,"t":813,"event":"mousemove"},{"x":1126,"y":590,"t":830,"event":"mousemove"},{"x":1128,"y":592,"t":847,"event":"mousemove"},{"x":1129,"y":592,"t":864,"event":"mousemove"}],"mouse_tracking_targets":{},"correct":true},{"rt":1634,"stimulus":"<p>How confident are you about your choice ?</p>","slider_start":50,"response":74,"trial_type":"html-slider-response","trial_index":27,"time_elapsed":48766,"internal_node_id":"0.0-6.0-2.2"},{"rt":null,"stimulus":"\n        <div id='jspsych-image' style='position: relative; width: min(80vw, 80vh); height: min(80vw, 80vh);'>\n                \n                <div style='position: absolute; top: 40%; left: 30%; bottom: 40%; right: 30%;'><h1 style='font-size: 60px; color: green;'>Correct!</h1></div>\n                \n                <div class='jspsych-image' id='jspsych-image-0' data-choice='0' style='top: 0;     left: 0;'><img style=\"width: 100%; height: 100%;\" src='../static/human_exp_images/task_size/02_2.png' class=''></img></div>\n                <div class='jspsych-image' id='jspsych-image-1' data-choice='1' style='top: 0;     right: 0;'><img style=\"width: 100%; height: 100%;\" src='../static/human_exp_images/task_size/02_0.png' class=''></img></div>\n                <div class='jspsych-image' id='jspsych-image-2' data-choice='2' style='bottom: 0;  left: 0;'><img style=\"width: 100%; height: 100%;\" src='../static/human_exp_images/task_size/02_1.png' class=''></img></div>\n                <div class='jspsych-image' id='jspsych-image-3' data-choice='3' style='bottom: 0;  right: 0;'><img style=\"width: 100%; height: 100%;\" src='../static/human_exp_images/task_size/02_3.png' class='correct-choice'></img></div>\n\n        </div>","response":null,"trial_type":"html-keyboard-response","trial_index":28,"time_elapsed":50270,"internal_node_id":"0.0-6.0-3.2"},{"rt":1897,"stimulus":"<p>You responded correctly on 100% of the trials.</p>\n    <p>Your average response time was 1689ms.</p>\n    <p>Press any key to complete the experiment. Thank you!</p>","response":" ","trial_type":"html-keyboard-response","trial_index":29,"time_elapsed":52169,"internal_node_id":"0.0-7.0","interactions":"[{\"event\":\"focus\",\"trial\":0,\"time\":85}]"}]