[{"rt":null,"trial_type":"image-click","trial_index":4,"time_elapsed":8038,"internal_node_id":"0.0-4.0-0.0"},{"rt":1062,"response":2,"all_choices":["../static/human_exp_images/practice_img/00_1.png","../static/human_exp_images/practice_img/00_0.png","../static/human_exp_images/practice_img/00_3.png","../static/human_exp_images/practice_img/00_2.png"],"task":"response","correct_response":2,"shuffled_array":[1,0,3,2],"catch_trial":false,"trial_type":"image-click","trial_index":5,"time_elapsed":9104,"internal_node_id":"0.0-4.0-1.0","mouse_tracking_data":[{"x":987,"y":542,"t":2,"event":"mousemove"},{"x":987,"y":527,"t":14,"event":"mousemove"},{"x":987,"y":520,"t":30,"event":"mousemove"},{"x":987,"y":515,"t":47,"event":"mousemove"},{"x":987,"y":513,"t":73,"event":"mousemove"},{"x":987,"y":511,"t":173,"event":"mousemove"},{"x":986,"y":511,"t":300,"event":"mousemove"},{"x":984,"y":511,"t":650,"event":"mousemove"},{"x":983,"y":511,"t":669,"event":"mousemove"},{"x":981,"y":511,"t":698,"event":"mousemove"},{"x":979,"y":511,"t":716,"event":"mousemove"},{"x":977,"y":511,"t":726,"event":"mousemove"},{"x":976,"y":511,"t":736,"event":"mousemove"},{"x":972,"y":511,"t":742,"event":"mousemove"},{"x":969,"y":511,"t":747,"event":"mousemove"},{"x":964,"y":513,"t":753,"event":"mousemove"},{"x":960,"y":515,"t":756,"event":"mousemove"},{"x":951,"y":524,"t":760,"event":"mousemove"},{"x":938,"y":537,"t":762,"event":"mousemove"},{"x":903,"y":578,"t":778,"event":"mousemove"},{"x":845,"y":646,"t":795,"event":"mousemove"},{"x":803,"y":684,"t":811,"event":"mousemove"},{"x":790,"y":698,"t":828,"event":"mousemove"},{"x":783,"y":701,"t":844,"event":"mousemove"},{"x":778,"y":706,"t":862,"event":"mousemove"},{"x":774,"y":710,"t":878,"event":"mousemove"},{"x":764,"y":718,"t":895,"event":"mousemove"},{"x":754,"y":728,"t":912,"event":"mousemove"},{"x":747,"y":735,"t":928,"event":"mousemove"},{"x":740,"y":742,"t":945,"event":"mousemove"},{"x":739,"y":745,"t":961,"event":"mousemove"}],"mouse_tracking_targets":{},"correct":true},{"rt":919,"stimulus":"<p>How confident are you about your choice ? (click on the bar)</p>","slider_start":50,"response":100,"trial_type":"html-slider-response","trial_index":6,"time_elapsed":10027,"internal_node_id":"0.0-4.0-2.0"},{"rt":null,"stimulus":"\n        <div id='jspsych-image' style='position: relative; width: min(80vw, 80vh); height: min(80vw, 80vh);'>\n                \n                <div style='position: absolute; top: 40%; left: 30%; bottom: 40%; right: 30%;'><h1 style='font-size: 60px; color: green;'>Correct!</h1></div>\n                \n                <div class='jspsych-image' id='jspsych-image-0' data-choice='0' style='top: 0;     left: 0;'><img style=\"width: 100%; height: 100%;\" src='../static/human_exp_images/practice_img/00_1.png' class=''></img></div>\n                <div class='jspsych-image' id='jspsych-image-1' data-choice='1' style='top: 0;     right: 0;'><img style=\"width: 100%; height: 100%;\" src='../static/human_exp_images/practice_img/00_0.png' class=''></img></div>\n                <div class='jspsych-image' id='jspsych-image-2' data-choice='2' style='bottom: 0;  left: 0;'><img style=\"width: 100%; height: 100%;\" src='../static/human_exp_images/practice_img/00_3.png' class='correct-choice'></img></div>\n                <div class='jspsych-image' id='jspsych-image-3' data-choice='3' style='bottom: 0;  right: 0;'><img style=\"width: 100%; height: 100%;\" src='../static/human_exp_images/practice_img/00_2.png' class=''></img></div>\n\n        </div>","response":null,"trial_type":"html-keyboard-response","trial_index":7,"time_elapsed":11530,"internal_node_id":"0.0-4.0-3.0"},{"rt":null,"trial_type":"image-click","trial_index":8,"time_elapsed":11898,"internal_node_id":"0.0-4.0-0.1"},{"rt":698,"response":1,"all_choices":["../static/human_exp_images/practice_img/01_0.png","../static/human_exp_images/practice_img/01_3.png","../static/human_exp_images/practice_img/01_1.png","../static/human_exp_images/practice_img/01_2.png"],"task":"response","correct_response":1,"shuffled_array":[0,3,1,2],"catch_trial":false,"trial_type":"image-click","trial_index":9,"time_elapsed":12600,"internal_node_id":"0.0-4.0-1.1","mouse_tracking_data":[{"x":987,"y":546,"t":1,"event":"mousemove"},{"x":987,"y":544,"t":3,"event":"mousemove"},{"x":987,"y":539,"t":13,"event":"mousemove"},{"x":985,"y":527,"t":30,"event":"mousemove"},{"x":980,"y":506,"t":46,"event":"mousemove"},{"x":976,"y":501,"t":63,"event":"mousemove"},{"x":975,"y":501,"t":86,"event":"mousemove"},{"x":973,"y":501,"t":115,"event":"mousemove"},{"x":978,"y":501,"t":379,"event":"mousemove"},{"x":980,"y":501,"t":381,"event":"mousemove"},{"x":991,"y":501,"t":397,"event":"mousemove"},{"x":1012,"y":501,"t":414,"event":"mousemove"},{"x":1022,"y":501,"t":430,"event":"mousemove"},{"x":1048,"y":501,"t":447,"event":"mousemove"},{"x":1089,"y":474,"t":463,"event":"mousemove"},{"x":1150,"y":390,"t":481,"event":"mousemove"},{"x":1182,"y":323,"t":497,"event":"mousemove"},{"x":1197,"y":281,"t":514,"event":"mousemove"},{"x":1207,"y":236,"t":531,"event":"mousemove"},{"x":1209,"y":225,"t":547,"event":"mousemove"},{"x":1211,"y":221,"t":564,"event":"mousemove"},{"x":1213,"y":221,"t":598,"event":"mousemove"}],"mouse_tracking_targets":{},"correct":true},{"rt":1303,"stimulus":"<p>How confident are you about your choice ? (click on the bar)</p>","slider_start":50,"response":100,"trial_type":"html-slider-response","trial_index":10,"time_elapsed":13903,"internal_node_id":"0.0-4.0-2.1"},{"rt":null,"stimulus":"\n        <div id='jspsych-image' style='position: relative; width: min(80vw, 80vh); height: min(80vw, 80vh);'>\n                \n                <div style='position: absolute; top: 40%; left: 30%; bottom: 40%; right: 30%;'><h1 style='font-size: 60px; color: green;'>Correct!</h1></div>\n                \n                <div class='jspsych-image' id='jspsych-image-0' data-choice='0' style='top: 0;     left: 0;'><img style=\"width: 100%; height: 100%;\" src='../static/human_exp_images/practice_img/01_0.png' class=''></img></div>\n                <div class='jspsych-image' id='jspsych-image-1' data-choice='1' style='top: 0;     right: 0;'><img style=\"width: 100%; height: 100%;\" src='../static/human_exp_images/practice_img/01_3.png' class='correct-choice'></img></div>\n                <div class='jspsych-image' id='jspsych-image-2' data-choice='2' style='bottom: 0;  left: 0;'><img style=\"width: 100%; height: 100%;\" src='../static/human_exp_images/practice_img/01_1.png' class=''></img></div>\n                <div class='jspsych-image' id='jspsych-image-3' data-choice='3' style='bottom: 0;  right: 0;'><img style=\"width: 100%; height: 100%;\" src='../static/human_exp_images/practice_img/01_2.png' class=''></img></div>\n\n        </div>","response":null,"trial_type":"html-keyboard-response","trial_index":11,"time_elapsed":15407,"internal_node_id":"0.0-4.0-3.1"},{"rt":null,"trial_type":"image-click","trial_index":12,"time_elapsed":15754,"internal_node_id":"0.0-4.0-0.2"},{"rt":1185,"response":3,"all_choices":["../static/human_exp_images/practice_img/02_2.png","../static/human_exp_images/practice_img/02_0.png","../static/human_exp_images/practice_img/02_1.png","../static/human_exp_images/practice_img/02_3.png"],"task":"response","correct_response":3,"shuffled_array":[2,0,1,3],"catch_trial":false,"trial_type":"image-click","trial_index":13,"time_elapsed":16941,"internal_node_id":"0.0-4.0-1.2","mouse_tracking_data":[{"x":1041,"y":505,"t":1,"event":"mousemove"},{"x":1032,"y":505,"t":14,"event":"mousemove"},{"x":1024,"y":505,"t":30,"event":"mousemove"},{"x":1020,"y":505,"t":47,"event":"mousemove"},{"x":1015,"y":505,"t":64,"event":"mousemove"},{"x":1014,"y":505,"t":82,"event":"mousemove"},{"x":1010,"y":505,"t":99,"event":"mousemove"},{"x":1008,"y":505,"t":114,"event":"mousemove"},{"x":1007,"y":505,"t":132,"event":"mousemove"},{"x":1005,"y":505,"t":155,"event":"mousemove"},{"x":1005,"y":504,"t":174,"event":"mousemove"},{"x":1005,"y":502,"t":393,"event":"mousemove"},{"x":1005,"y":500,"t":412,"event":"mousemove"},{"x":1005,"y":498,"t":429,"event":"mousemove"},{"x":1005,"y":497,"t":447,"event":"mousemove"},{"x":1007,"y":497,"t":457,"event":"mousemove"},{"x":1008,"y":497,"t":460,"event":"mousemove"},{"x":1010,"y":497,"t":466,"event":"mousemove"},{"x":1012,"y":495,"t":470,"event":"mousemove"},{"x":1014,"y":495,"t":474,"event":"mousemove"},{"x":1015,"y":493,"t":476,"event":"mousemove"},{"x":1020,"y":493,"t":492,"event":"mousemove"},{"x":1032,"y":492,"t":509,"event":"mousemove"},{"x":1051,"y":492,"t":525,"event":"mousemove"},{"x":1067,"y":492,"t":542,"event":"mousemove"},{"x":1075,"y":492,"t":558,"event":"mousemove"},{"x":1082,"y":492,"t":575,"event":"mousemove"},{"x":1091,"y":498,"t":591,"event":"mousemove"},{"x":1103,"y":517,"t":609,"event":"mousemove"},{"x":1116,"y":538,"t":625,"event":"mousemove"},{"x":1124,"y":550,"t":642,"event":"mousemove"},{"x":1128,"y":558,"t":660,"event":"mousemove"},{"x":1129,"y":560,"t":676,"event":"mousemove"},{"x":1131,"y":564,"t":693,"event":"mousemove"},{"x":1131,"y":565,"t":978,"event":"mousemove"},{"x":1131,"y":567,"t":980,"event":"mousemove"},{"x":1131,"y":579,"t":996,"event":"mousemove"},{"x":1131,"y":588,"t":1012,"event":"mousemove"},{"x":1131,"y":591,"t":1029,"event":"mousemove"},{"x":1131,"y":596,"t":1045,"event":"mousemove"},{"x":1131,"y":600,"t":1062,"event":"mousemove"},{"x":1131,"y":601,"t":1080,"event":"mousemove"},{"x":1131,"y":603,"t":1096,"event":"mousemove"}],"mouse_tracking_targets":{},"correct":true},{"rt":1023,"stimulus":"<p>How confident are you about your choice ? (click on the bar)</p>","slider_start":50,"response":100,"trial_type":"html-slider-response","trial_index":14,"time_elapsed":17967,"internal_node_id":"0.0-4.0-2.2"},{"rt":null,"stimulus":"\n        <div id='jspsych-image' style='position: relative; width: min(80vw, 80vh); height: min(80vw, 80vh);'>\n                \n                <div style='position: absolute; top: 40%; left: 30%; bottom: 40%; right: 30%;'><h1 style='font-size: 60px; color: green;'>Correct!</h1></div>\n                \n                <div class='jspsych-image' id='jspsych-image-0' data-choice='0' style='top: 0;     left: 0;'><img style=\"width: 100%; height: 100%;\" src='../static/human_exp_images/practice_img/02_2.png' class=''></img></div>\n                <div class='jspsych-image' id='jspsych-image-1' data-choice='1' style='top: 0;     right: 0;'><img style=\"width: 100%; height: 100%;\" src='../static/human_exp_images/practice_img/02_0.png' class=''></img></div>\n                <div class='jspsych-image' id='jspsych-image-2' data-choice='2' style='bottom: 0;  left: 0;'><img style=\"width: 100%; height: 100%;\" src='../static/human_exp_images/practice_img/02_1.png' class=''></img></div>\n                <div class='jspsych-image' id='jspsych-image-3' data-choice='3' style='bottom: 0;  right: 0;'><img style=\"width: 100%; height: 100%;\" src='../static/human_exp_images/practice_img/02_3.png' class='correct-choice'></img></div>\n\n        </div>","response":null,"trial_type":"html-keyboard-response","trial_index":15,"time_elapsed":19471,"internal_node_id":"0.0-4.0-3.2"}]