[{"success":true,"timeout":false,"failed_images":[],"failed_audio":[],"failed_video":[],"trial_type":"preload","trial_index":0,"time_elapsed":12,"internal_node_id":"0.0-0.0"},{"rt":1028,"stimulus":"<p style='font-size: 40px'>Welcome to the experiment.</p><p style='font-size: 30px'>Press any key to begin.</p>","response":" ","trial_type":"html-keyboard-response","trial_index":1,"time_elapsed":1040,"internal_node_id":"0.0-1.0"},{"rt":3577,"stimulus":"\n    <p>In this experiment, 4 images will appear on the screen. 3 out of 4 images were generated with a certain rule while one image (the odd one out) does not respect this rule. Select the odd one out by clicking on the image.</p>\n    <p>Following your choice, you will be asked to rate how confident you were about your choice on a scale from 1 to 100. Then, you will receive feedback on the trial.</p>\n    <p>For each rule you will perform 20 trials. You will be notified at each rule change. </p>\n    <p> Press any button to continue </p>\n    <div style='margin: auto; position: relative; width: 400px; height: 400px;'>\n        <div style='position: absolute; top: 0;     left: 0; '><img src='../static/img/square.png'></img></div>\n        <div style='position: absolute; top: 0;     right: 0;'><img src='../static/img/square.png'></img></div>\n        <div style='position: absolute; bottom: 0;  left: 0; '><img src='../static/img/square.png'></img></div>\n        <div style='position: absolute; bottom: 0;  right: 0;'><img src='../static/img/square.png'></img></div>\n    </div>\n","response":" ","trial_type":"html-keyboard-response","trial_index":2,"time_elapsed":4621,"internal_node_id":"0.0-2.0"},{"rt":906,"stimulus":"<h1 style='font-size: 60px'>New Rule!</h1> <p>Press any key to begin.</p>","response":" ","trial_type":"html-keyboard-response","trial_index":3,"time_elapsed":7529,"internal_node_id":"0.0-3.0"},{"rt":850,"response":1,"all_choices":["../static/human_exp_images/task_shape/00_3.png","../static/human_exp_images/task_shape/00_2.png","../static/human_exp_images/task_shape/00_0.png","../static/human_exp_images/task_shape/00_1.png"],"task":"response","correct_response":0,"shuffled_array":[3,2,0,1],"trial_type":"image-click","trial_index":4,"time_elapsed":8383,"internal_node_id":"0.0-4.0-0.0","mouse_tracking_data":[{"x":977,"y":441,"t":348,"event":"mousemove"},{"x":977,"y":439,"t":385,"event":"mousemove"},{"x":982,"y":439,"t":398,"event":"mousemove"},{"x":989,"y":438,"t":402,"event":"mousemove"},{"x":998,"y":438,"t":404,"event":"mousemove"},{"x":1017,"y":435,"t":420,"event":"mousemove"},{"x":1051,"y":418,"t":437,"event":"mousemove"},{"x":1070,"y":389,"t":453,"event":"mousemove"},{"x":1084,"y":359,"t":470,"event":"mousemove"},{"x":1096,"y":316,"t":486,"event":"mousemove"},{"x":1101,"y":295,"t":503,"event":"mousemove"},{"x":1109,"y":259,"t":520,"event":"mousemove"},{"x":1116,"y":238,"t":536,"event":"mousemove"},{"x":1119,"y":229,"t":553,"event":"mousemove"},{"x":1126,"y":226,"t":569,"event":"mousemove"},{"x":1131,"y":223,"t":586,"event":"mousemove"},{"x":1133,"y":223,"t":612,"event":"mousemove"},{"x":1135,"y":223,"t":621,"event":"mousemove"},{"x":1136,"y":219,"t":637,"event":"mousemove"},{"x":1143,"y":214,"t":652,"event":"mousemove"},{"x":1148,"y":209,"t":670,"event":"mousemove"},{"x":1153,"y":204,"t":686,"event":"mousemove"},{"x":1164,"y":195,"t":703,"event":"mousemove"},{"x":1167,"y":194,"t":719,"event":"mousemove"},{"x":1170,"y":190,"t":736,"event":"mousemove"}],"mouse_tracking_targets":{},"correct":false},{"rt":1145,"stimulus":"<p>How confident are you about your choice ?</p>","slider_start":50,"response":50,"trial_type":"html-slider-response","trial_index":5,"time_elapsed":9531,"internal_node_id":"0.0-4.0-1.0"},{"rt":null,"stimulus":"\n        <div id='jspsych-image' style='position: relative; width: min(80vw, 80vh); height: min(80vw, 80vh);'>\n                \n                <div style='position: absolute; top: 40%; left: 30%; bottom: 40%; right: 30%;'><h1 style='font-size: 60px; color: red'>Wrong</h1></div>\n                \n                <div class='jspsych-image' id='jspsych-image-0' data-choice='0' style='top: 0;     left: 0;'><img style=\"max-width: 100%; max-height: 100%;\" src='../static/human_exp_images/task_shape/00_3.png' class='correct-choice'></img></div>\n                <div class='jspsych-image' id='jspsych-image-1' data-choice='1' style='top: 0;     right: 0;'><img style=\"max-width: 100%; max-height: 100%;\" src='../static/human_exp_images/task_shape/00_2.png' class='wrong-choice'></img></div>\n                <div class='jspsych-image' id='jspsych-image-2' data-choice='2' style='bottom: 0;  left: 0;'><img style=\"max-width: 100%; max-height: 100%;\" src='../static/human_exp_images/task_shape/00_0.png' class=''></img></div>\n                <div class='jspsych-image' id='jspsych-image-3' data-choice='3' style='bottom: 0;  right: 0;'><img style=\"max-width: 100%; max-height: 100%;\" src='../static/human_exp_images/task_shape/00_1.png' class=''></img></div>\n\n        </div>","response":null,"trial_type":"html-keyboard-response","trial_index":6,"time_elapsed":12036,"internal_node_id":"0.0-4.0-2.0"},{"rt":1315,"stimulus":"<p>You responded correctly on 0% of the trials.</p>\n    <p>Your average response time was NaNms.</p>\n    <p>Press any key to complete the experiment. Thank you!</p>","response":" ","trial_type":"html-keyboard-response","trial_index":7,"time_elapsed":13354,"internal_node_id":"0.0-5.0","interactions":"[{\"event\":\"focus\",\"trial\":0,\"time\":0}]"}]