[{"rt":null,"trial_type":"image-click","trial_index":83,"time_elapsed":157231,"internal_node_id":"0.0-28.0-0.0"},{"rt":53316,"response":3,"all_choices":["../static/human_exp_images/task_rot_inside_1/00_0.png","../static/human_exp_images/task_rot_inside_1/00_2.png","../static/human_exp_images/task_rot_inside_1/00_1.png","../static/human_exp_images/task_rot_inside_1/00_3.png"],"task":"response","correct_response":3,"shuffled_array":[0,2,1,3],"catch_trial":false,"trial_type":"image-click","trial_index":84,"time_elapsed":210549,"internal_node_id":"0.0-28.0-1.0","mouse_tracking_data":[{"x":944,"y":541,"t":1,"event":"mousemove"},{"x":942,"y":528,"t":14,"event":"mousemove"},{"x":941,"y":512,"t":30,"event":"mousemove"},{"x":941,"y":504,"t":47,"event":"mousemove"},{"x":941,"y":495,"t":64,"event":"mousemove"},{"x":941,"y":490,"t":80,"event":"mousemove"},{"x":941,"y":488,"t":98,"event":"mousemove"},{"x":941,"y":487,"t":208,"event":"mousemove"},{"x":939,"y":487,"t":1464,"event":"mousemove"},{"x":939,"y":488,"t":1908,"event":"mousemove"},{"x":939,"y":490,"t":1935,"event":"mousemove"},{"x":939,"y":491,"t":2636,"event":"mousemove"},{"x":939,"y":493,"t":2654,"event":"mousemove"},{"x":939,"y":495,"t":2682,"event":"mousemove"},{"x":939,"y":496,"t":2702,"event":"mousemove"},{"x":939,"y":498,"t":2719,"event":"mousemove"},{"x":939,"y":500,"t":2737,"event":"mousemove"},{"x":939,"y":502,"t":2765,"event":"mousemove"},{"x":939,"y":503,"t":2782,"event":"mousemove"},{"x":939,"y":505,"t":2800,"event":"mousemove"},{"x":939,"y":507,"t":2828,"event":"mousemove"},{"x":939,"y":508,"t":2838,"event":"mousemove"},{"x":939,"y":510,"t":2848,"event":"mousemove"},{"x":939,"y":512,"t":2865,"event":"mousemove"},{"x":939,"y":515,"t":2882,"event":"mousemove"},{"x":939,"y":517,"t":2898,"event":"mousemove"},{"x":939,"y":520,"t":2915,"event":"mousemove"},{"x":939,"y":522,"t":2932,"event":"mousemove"},{"x":939,"y":525,"t":2948,"event":"mousemove"},{"x":939,"y":527,"t":2965,"event":"mousemove"},{"x":939,"y":529,"t":2981,"event":"mousemove"},{"x":939,"y":531,"t":3001,"event":"mousemove"},{"x":939,"y":532,"t":3015,"event":"mousemove"},{"x":939,"y":534,"t":3033,"event":"mousemove"},{"x":939,"y":536,"t":3048,"event":"mousemove"},{"x":939,"y":537,"t":3066,"event":"mousemove"},{"x":939,"y":539,"t":3082,"event":"mousemove"},{"x":939,"y":541,"t":3100,"event":"mousemove"},{"x":939,"y":543,"t":3127,"event":"mousemove"},{"x":939,"y":544,"t":3146,"event":"mousemove"},{"x":939,"y":546,"t":3163,"event":"mousemove"},{"x":939,"y":548,"t":3190,"event":"mousemove"},{"x":939,"y":549,"t":3273,"event":"mousemove"},{"x":939,"y":551,"t":3364,"event":"mousemove"},{"x":941,"y":551,"t":3556,"event":"mousemove"},{"x":943,"y":551,"t":3575,"event":"mousemove"},{"x":943,"y":553,"t":3582,"event":"mousemove"},{"x":943,"y":556,"t":3599,"event":"mousemove"},{"x":944,"y":558,"t":3615,"event":"mousemove"},{"x":946,"y":558,"t":3632,"event":"mousemove"},{"x":948,"y":560,"t":3649,"event":"mousemove"},{"x":948,"y":561,"t":3665,"event":"mousemove"},{"x":948,"y":563,"t":3683,"event":"mousemove"},{"x":949,"y":563,"t":3701,"event":"mousemove"},{"x":951,"y":563,"t":3739,"event":"mousemove"},{"x":953,"y":563,"t":4681,"event":"mousemove"},{"x":953,"y":565,"t":4698,"event":"mousemove"},{"x":954,"y":565,"t":4707,"event":"mousemove"},{"x":954,"y":566,"t":4780,"event":"mousemove"},{"x":956,"y":566,"t":4807,"event":"mousemove"},{"x":958,"y":566,"t":4843,"event":"mousemove"},{"x":958,"y":568,"t":4879,"event":"mousemove"},{"x":959,"y":568,"t":5015,"event":"mousemove"},{"x":959,"y":570,"t":52905,"event":"mousemove"},{"x":961,"y":571,"t":52908,"event":"mousemove"},{"x":975,"y":576,"t":52925,"event":"mousemove"},{"x":985,"y":583,"t":52940,"event":"mousemove"},{"x":997,"y":592,"t":52957,"event":"mousemove"},{"x":1002,"y":595,"t":52975,"event":"mousemove"},{"x":1011,"y":605,"t":52991,"event":"mousemove"},{"x":1019,"y":617,"t":53009,"event":"mousemove"},{"x":1026,"y":629,"t":53025,"event":"mousemove"},{"x":1031,"y":640,"t":53042,"event":"mousemove"},{"x":1036,"y":648,"t":53058,"event":"mousemove"},{"x":1041,"y":660,"t":53075,"event":"mousemove"},{"x":1048,"y":671,"t":53091,"event":"mousemove"},{"x":1055,"y":677,"t":53107,"event":"mousemove"},{"x":1062,"y":686,"t":53124,"event":"mousemove"},{"x":1070,"y":693,"t":53141,"event":"mousemove"},{"x":1076,"y":698,"t":53158,"event":"mousemove"},{"x":1081,"y":701,"t":53175,"event":"mousemove"},{"x":1087,"y":706,"t":53191,"event":"mousemove"},{"x":1093,"y":710,"t":53208,"event":"mousemove"},{"x":1096,"y":712,"t":53224,"event":"mousemove"},{"x":1098,"y":712,"t":53240,"event":"mousemove"},{"x":1099,"y":712,"t":53251,"event":"mousemove"}],"mouse_tracking_targets":{},"correct":true},{"rt":1338,"stimulus":"<p>How confident are you about your choice ? (click on the bar)</p>","slider_start":50,"response":92,"trial_type":"html-slider-response","trial_index":85,"time_elapsed":211891,"internal_node_id":"0.0-28.0-2.0"},{"rt":null,"stimulus":"\n        <div id='jspsych-image' style='position: relative; width: min(80vw, 80vh); height: min(80vw, 80vh);'>\n                \n                <div style='position: absolute; top: 40%; left: 30%; bottom: 40%; right: 30%;'><h1 style='font-size: 60px; color: green;'>Correct!</h1></div>\n                \n                <div class='jspsych-image' id='jspsych-image-0' data-choice='0' style='top: 0;     left: 0;'><img style=\"width: 100%; height: 100%;\" src='../static/human_exp_images/task_rot_inside_1/00_0.png' class=''></img></div>\n                <div class='jspsych-image' id='jspsych-image-1' data-choice='1' style='top: 0;     right: 0;'><img style=\"width: 100%; height: 100%;\" src='../static/human_exp_images/task_rot_inside_1/00_2.png' class=''></img></div>\n                <div class='jspsych-image' id='jspsych-image-2' data-choice='2' style='bottom: 0;  left: 0;'><img style=\"width: 100%; height: 100%;\" src='../static/human_exp_images/task_rot_inside_1/00_1.png' class=''></img></div>\n                <div class='jspsych-image' id='jspsych-image-3' data-choice='3' style='bottom: 0;  right: 0;'><img style=\"width: 100%; height: 100%;\" src='../static/human_exp_images/task_rot_inside_1/00_3.png' class='correct-choice'></img></div>\n\n        </div>","response":null,"trial_type":"html-keyboard-response","trial_index":86,"time_elapsed":213396,"internal_node_id":"0.0-28.0-3.0"},{"rt":null,"trial_type":"image-click","trial_index":87,"time_elapsed":214045,"internal_node_id":"0.0-28.0-0.1"},{"rt":10102,"response":0,"all_choices":["../static/human_exp_images/task_rot_inside_1/01_3.png","../static/human_exp_images/task_rot_inside_1/01_1.png","../static/human_exp_images/task_rot_inside_1/01_0.png","../static/human_exp_images/task_rot_inside_1/01_2.png"],"task":"response","correct_response":0,"shuffled_array":[3,1,0,2],"catch_trial":false,"trial_type":"image-click","trial_index":88,"time_elapsed":224151,"internal_node_id":"0.0-28.0-1.1","mouse_tracking_data":[{"x":1048,"y":482,"t":1,"event":"mousemove"},{"x":1022,"y":482,"t":12,"event":"mousemove"},{"x":1009,"y":482,"t":29,"event":"mousemove"},{"x":1000,"y":482,"t":45,"event":"mousemove"},{"x":998,"y":482,"t":62,"event":"mousemove"},{"x":997,"y":482,"t":79,"event":"mousemove"},{"x":997,"y":480,"t":201,"event":"mousemove"},{"x":997,"y":478,"t":255,"event":"mousemove"},{"x":998,"y":478,"t":337,"event":"mousemove"},{"x":1000,"y":478,"t":1078,"event":"mousemove"},{"x":1001,"y":481,"t":9444,"event":"mousemove"},{"x":1003,"y":481,"t":9450,"event":"mousemove"},{"x":1005,"y":493,"t":9467,"event":"mousemove"},{"x":1005,"y":496,"t":9484,"event":"mousemove"},{"x":1007,"y":499,"t":9501,"event":"mousemove"},{"x":1007,"y":501,"t":9517,"event":"mousemove"},{"x":1004,"y":501,"t":9560,"event":"mousemove"},{"x":1002,"y":501,"t":9567,"event":"mousemove"},{"x":990,"y":501,"t":9584,"event":"mousemove"},{"x":982,"y":491,"t":9601,"event":"mousemove"},{"x":971,"y":479,"t":9617,"event":"mousemove"},{"x":963,"y":463,"t":9634,"event":"mousemove"},{"x":954,"y":448,"t":9650,"event":"mousemove"},{"x":947,"y":436,"t":9667,"event":"mousemove"},{"x":938,"y":423,"t":9683,"event":"mousemove"},{"x":933,"y":415,"t":9700,"event":"mousemove"},{"x":926,"y":406,"t":9717,"event":"mousemove"},{"x":921,"y":396,"t":9733,"event":"mousemove"},{"x":916,"y":389,"t":9750,"event":"mousemove"},{"x":909,"y":379,"t":9767,"event":"mousemove"},{"x":904,"y":370,"t":9783,"event":"mousemove"},{"x":899,"y":360,"t":9799,"event":"mousemove"},{"x":892,"y":353,"t":9817,"event":"mousemove"},{"x":889,"y":348,"t":9833,"event":"mousemove"},{"x":884,"y":343,"t":9850,"event":"mousemove"},{"x":875,"y":334,"t":9866,"event":"mousemove"},{"x":868,"y":326,"t":9883,"event":"mousemove"},{"x":860,"y":319,"t":9900,"event":"mousemove"},{"x":853,"y":312,"t":9916,"event":"mousemove"},{"x":848,"y":305,"t":9934,"event":"mousemove"},{"x":844,"y":302,"t":9950,"event":"mousemove"},{"x":839,"y":297,"t":9967,"event":"mousemove"},{"x":837,"y":293,"t":9983,"event":"mousemove"},{"x":836,"y":292,"t":10000,"event":"mousemove"}],"mouse_tracking_targets":{},"correct":true},{"rt":1013,"stimulus":"<p>How confident are you about your choice ? (click on the bar)</p>","slider_start":50,"response":97,"trial_type":"html-slider-response","trial_index":89,"time_elapsed":225167,"internal_node_id":"0.0-28.0-2.1"},{"rt":null,"stimulus":"\n        <div id='jspsych-image' style='position: relative; width: min(80vw, 80vh); height: min(80vw, 80vh);'>\n                \n                <div style='position: absolute; top: 40%; left: 30%; bottom: 40%; right: 30%;'><h1 style='font-size: 60px; color: green;'>Correct!</h1></div>\n                \n                <div class='jspsych-image' id='jspsych-image-0' data-choice='0' style='top: 0;     left: 0;'><img style=\"width: 100%; height: 100%;\" src='../static/human_exp_images/task_rot_inside_1/01_3.png' class='correct-choice'></img></div>\n                <div class='jspsych-image' id='jspsych-image-1' data-choice='1' style='top: 0;     right: 0;'><img style=\"width: 100%; height: 100%;\" src='../static/human_exp_images/task_rot_inside_1/01_1.png' class=''></img></div>\n                <div class='jspsych-image' id='jspsych-image-2' data-choice='2' style='bottom: 0;  left: 0;'><img style=\"width: 100%; height: 100%;\" src='../static/human_exp_images/task_rot_inside_1/01_0.png' class=''></img></div>\n                <div class='jspsych-image' id='jspsych-image-3' data-choice='3' style='bottom: 0;  right: 0;'><img style=\"width: 100%; height: 100%;\" src='../static/human_exp_images/task_rot_inside_1/01_2.png' class=''></img></div>\n\n        </div>","response":null,"trial_type":"html-keyboard-response","trial_index":90,"time_elapsed":226671,"internal_node_id":"0.0-28.0-3.1"},{"rt":null,"trial_type":"image-click","trial_index":91,"time_elapsed":227234,"internal_node_id":"0.0-28.0-0.2"},{"rt":20812,"response":3,"all_choices":["../static/human_exp_images/task_rot_inside_1/02_3.png","../static/human_exp_images/task_rot_inside_1/02_1.png","../static/human_exp_images/task_rot_inside_1/02_0.png","../static/human_exp_images/task_rot_inside_1/02_2.png"],"task":"response","correct_response":0,"shuffled_array":[3,1,0,2],"catch_trial":false,"trial_type":"image-click","trial_index":92,"time_elapsed":248049,"internal_node_id":"0.0-28.0-1.2","mouse_tracking_data":[{"x":1050,"y":467,"t":1,"event":"mousemove"},{"x":1031,"y":465,"t":12,"event":"mousemove"},{"x":1014,"y":462,"t":29,"event":"mousemove"},{"x":1004,"y":460,"t":45,"event":"mousemove"},{"x":993,"y":457,"t":62,"event":"mousemove"},{"x":988,"y":457,"t":79,"event":"mousemove"},{"x":981,"y":457,"t":95,"event":"mousemove"},{"x":978,"y":457,"t":113,"event":"mousemove"},{"x":975,"y":457,"t":129,"event":"mousemove"},{"x":973,"y":457,"t":146,"event":"mousemove"},{"x":971,"y":457,"t":162,"event":"mousemove"},{"x":971,"y":455,"t":264,"event":"mousemove"},{"x":971,"y":453,"t":292,"event":"mousemove"},{"x":971,"y":451,"t":310,"event":"mousemove"},{"x":971,"y":450,"t":337,"event":"mousemove"},{"x":971,"y":448,"t":373,"event":"mousemove"},{"x":973,"y":448,"t":538,"event":"mousemove"},{"x":974,"y":448,"t":1763,"event":"mousemove"},{"x":976,"y":448,"t":1983,"event":"mousemove"},{"x":976,"y":446,"t":2203,"event":"mousemove"},{"x":978,"y":446,"t":2441,"event":"mousemove"},{"x":978,"y":445,"t":2458,"event":"mousemove"},{"x":980,"y":445,"t":2486,"event":"mousemove"},{"x":981,"y":445,"t":2550,"event":"mousemove"},{"x":983,"y":445,"t":2578,"event":"mousemove"},{"x":983,"y":443,"t":2613,"event":"mousemove"},{"x":985,"y":441,"t":2678,"event":"mousemove"},{"x":986,"y":441,"t":2724,"event":"mousemove"},{"x":988,"y":441,"t":20433,"event":"mousemove"},{"x":990,"y":441,"t":20439,"event":"mousemove"},{"x":998,"y":441,"t":20457,"event":"mousemove"},{"x":1010,"y":450,"t":20473,"event":"mousemove"},{"x":1030,"y":467,"t":20490,"event":"mousemove"},{"x":1050,"y":488,"t":20505,"event":"mousemove"},{"x":1068,"y":501,"t":20523,"event":"mousemove"},{"x":1080,"y":511,"t":20539,"event":"mousemove"},{"x":1087,"y":515,"t":20556,"event":"mousemove"},{"x":1094,"y":522,"t":20573,"event":"mousemove"},{"x":1103,"y":529,"t":20589,"event":"mousemove"},{"x":1109,"y":534,"t":20606,"event":"mousemove"},{"x":1118,"y":543,"t":20623,"event":"mousemove"},{"x":1126,"y":549,"t":20639,"event":"mousemove"},{"x":1133,"y":556,"t":20656,"event":"mousemove"},{"x":1142,"y":563,"t":20673,"event":"mousemove"},{"x":1149,"y":570,"t":20690,"event":"mousemove"},{"x":1154,"y":575,"t":20707,"event":"mousemove"},{"x":1156,"y":575,"t":20723,"event":"mousemove"}],"mouse_tracking_targets":{},"correct":false},{"rt":946,"stimulus":"<p>How confident are you about your choice ? (click on the bar)</p>","slider_start":50,"response":94,"trial_type":"html-slider-response","trial_index":93,"time_elapsed":248998,"internal_node_id":"0.0-28.0-2.2"},{"rt":null,"stimulus":"\n        <div id='jspsych-image' style='position: relative; width: min(80vw, 80vh); height: min(80vw, 80vh);'>\n                \n                <div style='position: absolute; top: 40%; left: 30%; bottom: 40%; right: 30%;'><h1 style='font-size: 60px; color: red'>Wrong</h1></div>\n                \n                <div class='jspsych-image' id='jspsych-image-0' data-choice='0' style='top: 0;     left: 0;'><img style=\"width: 100%; height: 100%;\" src='../static/human_exp_images/task_rot_inside_1/02_3.png' class='correct-choice'></img></div>\n                <div class='jspsych-image' id='jspsych-image-1' data-choice='1' style='top: 0;     right: 0;'><img style=\"width: 100%; height: 100%;\" src='../static/human_exp_images/task_rot_inside_1/02_1.png' class=''></img></div>\n                <div class='jspsych-image' id='jspsych-image-2' data-choice='2' style='bottom: 0;  left: 0;'><img style=\"width: 100%; height: 100%;\" src='../static/human_exp_images/task_rot_inside_1/02_0.png' class=''></img></div>\n                <div class='jspsych-image' id='jspsych-image-3' data-choice='3' style='bottom: 0;  right: 0;'><img style=\"width: 100%; height: 100%;\" src='../static/human_exp_images/task_rot_inside_1/02_2.png' class='wrong-choice'></img></div>\n\n        </div>","response":null,"trial_type":"html-keyboard-response","trial_index":94,"time_elapsed":251502,"internal_node_id":"0.0-28.0-3.2"},{"rt":1456,"response":{"Q0":""},"trial_type":"survey-text","trial_index":95,"time_elapsed":252964,"internal_node_id":"0.0-29.0"}]