[{"rt":null,"trial_type":"image-click","trial_index":19,"time_elapsed":27179,"internal_node_id":"0.0-8.0-0.0"},{"rt":598,"response":1,"all_choices":["../static/human_exp_images/task_color/00_1.png","../static/human_exp_images/task_color/00_0.png","../static/human_exp_images/task_color/00_2.png","../static/human_exp_images/task_color/00_3.png"],"task":"response","correct_response":3,"shuffled_array":[1,0,2,3],"catch_trial":false,"trial_type":"image-click","trial_index":20,"time_elapsed":27779,"internal_node_id":"0.0-8.0-1.0","mouse_tracking_data":[{"x":1025,"y":462,"t":1,"event":"mousemove"},{"x":984,"y":456,"t":30,"event":"mousemove"},{"x":967,"y":456,"t":48,"event":"mousemove"},{"x":962,"y":456,"t":63,"event":"mousemove"},{"x":960,"y":456,"t":81,"event":"mousemove"},{"x":962,"y":456,"t":262,"event":"mousemove"},{"x":966,"y":456,"t":271,"event":"mousemove"},{"x":967,"y":456,"t":281,"event":"mousemove"},{"x":974,"y":456,"t":298,"event":"mousemove"},{"x":979,"y":456,"t":315,"event":"mousemove"},{"x":991,"y":456,"t":332,"event":"mousemove"},{"x":1008,"y":456,"t":347,"event":"mousemove"},{"x":1027,"y":451,"t":365,"event":"mousemove"},{"x":1059,"y":423,"t":380,"event":"mousemove"},{"x":1104,"y":378,"t":398,"event":"mousemove"},{"x":1134,"y":350,"t":413,"event":"mousemove"},{"x":1164,"y":320,"t":432,"event":"mousemove"},{"x":1188,"y":299,"t":448,"event":"mousemove"},{"x":1196,"y":287,"t":464,"event":"mousemove"},{"x":1200,"y":285,"t":481,"event":"mousemove"},{"x":1203,"y":284,"t":497,"event":"mousemove"},{"x":1203,"y":282,"t":515,"event":"mousemove"}],"mouse_tracking_targets":{},"correct":false},{"rt":1258,"stimulus":"<p>How confident are you about your choice ? (click on the bar)</p>","slider_start":50,"response":69,"trial_type":"html-slider-response","trial_index":21,"time_elapsed":29038,"internal_node_id":"0.0-8.0-2.0"},{"rt":null,"stimulus":"\n        <div id='jspsych-image' style='position: relative; width: min(80vw, 80vh); height: min(80vw, 80vh);'>\n                \n                <div style='position: absolute; top: 40%; left: 30%; bottom: 40%; right: 30%;'><h1 style='font-size: 60px; color: red'>Wrong</h1></div>\n                \n                <div class='jspsych-image' id='jspsych-image-0' data-choice='0' style='top: 0;     left: 0;'><img style=\"width: 100%; height: 100%;\" src='../static/human_exp_images/task_color/00_1.png' class=''></img></div>\n                <div class='jspsych-image' id='jspsych-image-1' data-choice='1' style='top: 0;     right: 0;'><img style=\"width: 100%; height: 100%;\" src='../static/human_exp_images/task_color/00_0.png' class='wrong-choice'></img></div>\n                <div class='jspsych-image' id='jspsych-image-2' data-choice='2' style='bottom: 0;  left: 0;'><img style=\"width: 100%; height: 100%;\" src='../static/human_exp_images/task_color/00_2.png' class=''></img></div>\n                <div class='jspsych-image' id='jspsych-image-3' data-choice='3' style='bottom: 0;  right: 0;'><img style=\"width: 100%; height: 100%;\" src='../static/human_exp_images/task_color/00_3.png' class='correct-choice'></img></div>\n\n        </div>","response":null,"trial_type":"html-keyboard-response","trial_index":22,"time_elapsed":31542,"internal_node_id":"0.0-8.0-3.0"},{"rt":null,"trial_type":"image-click","trial_index":23,"time_elapsed":31543,"internal_node_id":"0.0-8.0-0.1"},{"rt":951,"response":1,"all_choices":["../static/human_exp_images/task_color/01_1.png","../static/human_exp_images/task_color/01_3.png","../static/human_exp_images/task_color/01_2.png","../static/human_exp_images/task_color/01_0.png"],"task":"response","correct_response":1,"shuffled_array":[1,3,2,0],"catch_trial":false,"trial_type":"image-click","trial_index":24,"time_elapsed":32496,"internal_node_id":"0.0-8.0-1.1","mouse_tracking_data":[{"x":972,"y":460,"t":68,"event":"mousemove"},{"x":972,"y":458,"t":86,"event":"mousemove"},{"x":972,"y":456,"t":105,"event":"mousemove"},{"x":975,"y":455,"t":716,"event":"mousemove"},{"x":977,"y":455,"t":719,"event":"mousemove"},{"x":1001,"y":432,"t":735,"event":"mousemove"},{"x":1058,"y":387,"t":752,"event":"mousemove"},{"x":1106,"y":352,"t":769,"event":"mousemove"},{"x":1146,"y":322,"t":786,"event":"mousemove"},{"x":1208,"y":260,"t":802,"event":"mousemove"},{"x":1270,"y":202,"t":819,"event":"mousemove"},{"x":1308,"y":170,"t":837,"event":"mousemove"},{"x":1320,"y":163,"t":853,"event":"mousemove"},{"x":1322,"y":163,"t":870,"event":"mousemove"}],"mouse_tracking_targets":{},"correct":true},{"rt":1033,"stimulus":"<p>How confident are you about your choice ? (click on the bar)</p>","slider_start":50,"response":90,"trial_type":"html-slider-response","trial_index":25,"time_elapsed":33532,"internal_node_id":"0.0-8.0-2.1"},{"rt":null,"stimulus":"\n        <div id='jspsych-image' style='position: relative; width: min(80vw, 80vh); height: min(80vw, 80vh);'>\n                \n                <div style='position: absolute; top: 40%; left: 30%; bottom: 40%; right: 30%;'><h1 style='font-size: 60px; color: green;'>Correct!</h1></div>\n                \n                <div class='jspsych-image' id='jspsych-image-0' data-choice='0' style='top: 0;     left: 0;'><img style=\"width: 100%; height: 100%;\" src='../static/human_exp_images/task_color/01_1.png' class=''></img></div>\n                <div class='jspsych-image' id='jspsych-image-1' data-choice='1' style='top: 0;     right: 0;'><img style=\"width: 100%; height: 100%;\" src='../static/human_exp_images/task_color/01_3.png' class='correct-choice'></img></div>\n                <div class='jspsych-image' id='jspsych-image-2' data-choice='2' style='bottom: 0;  left: 0;'><img style=\"width: 100%; height: 100%;\" src='../static/human_exp_images/task_color/01_2.png' class=''></img></div>\n                <div class='jspsych-image' id='jspsych-image-3' data-choice='3' style='bottom: 0;  right: 0;'><img style=\"width: 100%; height: 100%;\" src='../static/human_exp_images/task_color/01_0.png' class=''></img></div>\n\n        </div>","response":null,"trial_type":"html-keyboard-response","trial_index":26,"time_elapsed":35036,"internal_node_id":"0.0-8.0-3.1"},{"rt":null,"trial_type":"image-click","trial_index":27,"time_elapsed":35038,"internal_node_id":"0.0-8.0-0.2"},{"rt":853,"response":1,"all_choices":["../static/human_exp_images/task_color/02_0.png","../static/human_exp_images/task_color/02_3.png","../static/human_exp_images/task_color/02_2.png","../static/human_exp_images/task_color/02_1.png"],"task":"response","correct_response":1,"shuffled_array":[0,3,2,1],"catch_trial":false,"trial_type":"image-click","trial_index":28,"time_elapsed":35894,"internal_node_id":"0.0-8.0-1.2","mouse_tracking_data":[{"x":958,"y":475,"t":420,"event":"mousemove"},{"x":963,"y":472,"t":430,"event":"mousemove"},{"x":970,"y":459,"t":442,"event":"mousemove"},{"x":987,"y":436,"t":460,"event":"mousemove"},{"x":1011,"y":413,"t":475,"event":"mousemove"},{"x":1031,"y":396,"t":493,"event":"mousemove"},{"x":1045,"y":385,"t":509,"event":"mousemove"},{"x":1061,"y":373,"t":526,"event":"mousemove"},{"x":1074,"y":360,"t":543,"event":"mousemove"},{"x":1094,"y":341,"t":560,"event":"mousemove"},{"x":1121,"y":318,"t":576,"event":"mousemove"},{"x":1157,"y":282,"t":593,"event":"mousemove"},{"x":1170,"y":271,"t":609,"event":"mousemove"},{"x":1195,"y":254,"t":626,"event":"mousemove"},{"x":1203,"y":248,"t":643,"event":"mousemove"},{"x":1205,"y":248,"t":659,"event":"mousemove"}],"mouse_tracking_targets":{},"correct":true},{"rt":879,"stimulus":"<p>How confident are you about your choice ? (click on the bar)</p>","slider_start":50,"response":93,"trial_type":"html-slider-response","trial_index":29,"time_elapsed":36774,"internal_node_id":"0.0-8.0-2.2"},{"rt":null,"stimulus":"\n        <div id='jspsych-image' style='position: relative; width: min(80vw, 80vh); height: min(80vw, 80vh);'>\n                \n                <div style='position: absolute; top: 40%; left: 30%; bottom: 40%; right: 30%;'><h1 style='font-size: 60px; color: green;'>Correct!</h1></div>\n                \n                <div class='jspsych-image' id='jspsych-image-0' data-choice='0' style='top: 0;     left: 0;'><img style=\"width: 100%; height: 100%;\" src='../static/human_exp_images/task_color/02_0.png' class=''></img></div>\n                <div class='jspsych-image' id='jspsych-image-1' data-choice='1' style='top: 0;     right: 0;'><img style=\"width: 100%; height: 100%;\" src='../static/human_exp_images/task_color/02_3.png' class='correct-choice'></img></div>\n                <div class='jspsych-image' id='jspsych-image-2' data-choice='2' style='bottom: 0;  left: 0;'><img style=\"width: 100%; height: 100%;\" src='../static/human_exp_images/task_color/02_2.png' class=''></img></div>\n                <div class='jspsych-image' id='jspsych-image-3' data-choice='3' style='bottom: 0;  right: 0;'><img style=\"width: 100%; height: 100%;\" src='../static/human_exp_images/task_color/02_1.png' class=''></img></div>\n\n        </div>","response":null,"trial_type":"html-keyboard-response","trial_index":30,"time_elapsed":38277,"internal_node_id":"0.0-8.0-3.2"},{"rt":2710,"response":{"Q0":"kkk"},"trial_type":"survey-text","trial_index":31,"time_elapsed":41006,"internal_node_id":"0.0-9.0"}]