[{"rt":null,"trial_type":"image-click","trial_index":35,"time_elapsed":51141,"internal_node_id":"0.0-13.0-0.0"},{"rt":2167,"response":3,"all_choices":["../static/human_exp_images/task_inside/00_0.png","../static/human_exp_images/task_inside/00_2.png","../static/human_exp_images/task_inside/00_1.png","../static/human_exp_images/task_inside/00_3.png"],"task":"response","correct_response":3,"shuffled_array":[0,2,1,3],"catch_trial":false,"trial_type":"image-click","trial_index":36,"time_elapsed":53312,"internal_node_id":"0.0-13.0-1.0","mouse_tracking_data":[{"x":979,"y":529,"t":1,"event":"mousemove"},{"x":957,"y":498,"t":14,"event":"mousemove"},{"x":950,"y":484,"t":31,"event":"mousemove"},{"x":944,"y":475,"t":47,"event":"mousemove"},{"x":941,"y":472,"t":64,"event":"mousemove"},{"x":937,"y":470,"t":81,"event":"mousemove"},{"x":936,"y":470,"t":127,"event":"mousemove"},{"x":934,"y":470,"t":146,"event":"mousemove"},{"x":935,"y":470,"t":1268,"event":"mousemove"},{"x":939,"y":470,"t":1280,"event":"mousemove"},{"x":944,"y":470,"t":1298,"event":"mousemove"},{"x":947,"y":470,"t":1314,"event":"mousemove"},{"x":951,"y":474,"t":1331,"event":"mousemove"},{"x":954,"y":475,"t":1347,"event":"mousemove"},{"x":958,"y":475,"t":1364,"event":"mousemove"},{"x":961,"y":477,"t":1380,"event":"mousemove"},{"x":964,"y":479,"t":1397,"event":"mousemove"},{"x":968,"y":481,"t":1414,"event":"mousemove"},{"x":970,"y":481,"t":1430,"event":"mousemove"},{"x":971,"y":482,"t":1447,"event":"mousemove"},{"x":975,"y":484,"t":1464,"event":"mousemove"},{"x":976,"y":486,"t":1481,"event":"mousemove"},{"x":978,"y":487,"t":1497,"event":"mousemove"},{"x":982,"y":489,"t":1515,"event":"mousemove"},{"x":983,"y":489,"t":1532,"event":"mousemove"},{"x":987,"y":491,"t":1547,"event":"mousemove"},{"x":988,"y":493,"t":1565,"event":"mousemove"},{"x":990,"y":494,"t":1580,"event":"mousemove"},{"x":992,"y":496,"t":1598,"event":"mousemove"},{"x":993,"y":498,"t":1624,"event":"mousemove"},{"x":995,"y":498,"t":1638,"event":"mousemove"},{"x":997,"y":501,"t":1648,"event":"mousemove"},{"x":1005,"y":505,"t":1665,"event":"mousemove"},{"x":1014,"y":510,"t":1681,"event":"mousemove"},{"x":1028,"y":515,"t":1698,"event":"mousemove"},{"x":1034,"y":520,"t":1714,"event":"mousemove"},{"x":1052,"y":530,"t":1731,"event":"mousemove"},{"x":1068,"y":541,"t":1748,"event":"mousemove"},{"x":1083,"y":553,"t":1765,"event":"mousemove"},{"x":1096,"y":564,"t":1781,"event":"mousemove"},{"x":1106,"y":574,"t":1798,"event":"mousemove"},{"x":1118,"y":584,"t":1815,"event":"mousemove"},{"x":1125,"y":589,"t":1831,"event":"mousemove"},{"x":1137,"y":600,"t":1849,"event":"mousemove"},{"x":1145,"y":607,"t":1864,"event":"mousemove"},{"x":1150,"y":612,"t":1882,"event":"mousemove"},{"x":1154,"y":615,"t":1898,"event":"mousemove"},{"x":1156,"y":617,"t":1915,"event":"mousemove"}],"mouse_tracking_targets":{},"correct":true},{"rt":860,"stimulus":"<p>How confident are you about your choice ? (click on the bar)</p>","slider_start":50,"response":81,"trial_type":"html-slider-response","trial_index":37,"time_elapsed":54174,"internal_node_id":"0.0-13.0-2.0"},{"rt":null,"stimulus":"\n        <div id='jspsych-image' style='position: relative; width: min(80vw, 80vh); height: min(80vw, 80vh);'>\n                \n                <div style='position: absolute; top: 40%; left: 30%; bottom: 40%; right: 30%;'><h1 style='font-size: 60px; color: green;'>Correct!</h1></div>\n                \n                <div class='jspsych-image' id='jspsych-image-0' data-choice='0' style='top: 0;     left: 0;'><img style=\"width: 100%; height: 100%;\" src='../static/human_exp_images/task_inside/00_0.png' class=''></img></div>\n                <div class='jspsych-image' id='jspsych-image-1' data-choice='1' style='top: 0;     right: 0;'><img style=\"width: 100%; height: 100%;\" src='../static/human_exp_images/task_inside/00_2.png' class=''></img></div>\n                <div class='jspsych-image' id='jspsych-image-2' data-choice='2' style='bottom: 0;  left: 0;'><img style=\"width: 100%; height: 100%;\" src='../static/human_exp_images/task_inside/00_1.png' class=''></img></div>\n                <div class='jspsych-image' id='jspsych-image-3' data-choice='3' style='bottom: 0;  right: 0;'><img style=\"width: 100%; height: 100%;\" src='../static/human_exp_images/task_inside/00_3.png' class='correct-choice'></img></div>\n\n        </div>","response":null,"trial_type":"html-keyboard-response","trial_index":38,"time_elapsed":55674,"internal_node_id":"0.0-13.0-3.0"},{"rt":null,"trial_type":"image-click","trial_index":39,"time_elapsed":56028,"internal_node_id":"0.0-13.0-0.1"},{"rt":1457,"response":2,"all_choices":["../static/human_exp_images/task_inside/01_2.png","../static/human_exp_images/task_inside/01_0.png","../static/human_exp_images/task_inside/01_3.png","../static/human_exp_images/task_inside/01_1.png"],"task":"response","correct_response":2,"shuffled_array":[2,0,3,1],"catch_trial":false,"trial_type":"image-click","trial_index":40,"time_elapsed":57485,"internal_node_id":"0.0-13.0-1.1","mouse_tracking_data":[{"x":1048,"y":490,"t":1,"event":"mousemove"},{"x":1038,"y":490,"t":14,"event":"mousemove"},{"x":1024,"y":490,"t":31,"event":"mousemove"},{"x":1014,"y":490,"t":48,"event":"mousemove"},{"x":1000,"y":490,"t":65,"event":"mousemove"},{"x":993,"y":490,"t":82,"event":"mousemove"},{"x":986,"y":489,"t":98,"event":"mousemove"},{"x":981,"y":489,"t":114,"event":"mousemove"},{"x":979,"y":489,"t":131,"event":"mousemove"},{"x":977,"y":489,"t":148,"event":"mousemove"},{"x":982,"y":489,"t":393,"event":"mousemove"},{"x":984,"y":489,"t":398,"event":"mousemove"},{"x":1012,"y":503,"t":414,"event":"mousemove"},{"x":1042,"y":528,"t":432,"event":"mousemove"},{"x":1067,"y":543,"t":448,"event":"mousemove"},{"x":1078,"y":552,"t":465,"event":"mousemove"},{"x":1094,"y":564,"t":482,"event":"mousemove"},{"x":1106,"y":575,"t":499,"event":"mousemove"},{"x":1117,"y":583,"t":515,"event":"mousemove"},{"x":1127,"y":595,"t":531,"event":"mousemove"},{"x":1134,"y":602,"t":548,"event":"mousemove"},{"x":1141,"y":607,"t":565,"event":"mousemove"},{"x":1149,"y":613,"t":581,"event":"mousemove"},{"x":1154,"y":618,"t":598,"event":"mousemove"},{"x":1158,"y":619,"t":615,"event":"mousemove"},{"x":1159,"y":621,"t":632,"event":"mousemove"},{"x":1161,"y":623,"t":648,"event":"mousemove"},{"x":1159,"y":623,"t":1079,"event":"mousemove"},{"x":1149,"y":623,"t":1082,"event":"mousemove"},{"x":1111,"y":629,"t":1099,"event":"mousemove"},{"x":1047,"y":638,"t":1116,"event":"mousemove"},{"x":962,"y":659,"t":1133,"event":"mousemove"},{"x":883,"y":685,"t":1148,"event":"mousemove"},{"x":814,"y":707,"t":1166,"event":"mousemove"},{"x":761,"y":725,"t":1182,"event":"mousemove"},{"x":736,"y":734,"t":1199,"event":"mousemove"},{"x":710,"y":745,"t":1215,"event":"mousemove"},{"x":694,"y":751,"t":1232,"event":"mousemove"},{"x":684,"y":754,"t":1248,"event":"mousemove"},{"x":672,"y":757,"t":1265,"event":"mousemove"},{"x":666,"y":757,"t":1282,"event":"mousemove"},{"x":663,"y":757,"t":1316,"event":"mousemove"}],"mouse_tracking_targets":{},"correct":true},{"rt":1264,"stimulus":"<p>How confident are you about your choice ? (click on the bar)</p>","slider_start":50,"response":91,"trial_type":"html-slider-response","trial_index":41,"time_elapsed":58752,"internal_node_id":"0.0-13.0-2.1"},{"rt":null,"stimulus":"\n        <div id='jspsych-image' style='position: relative; width: min(80vw, 80vh); height: min(80vw, 80vh);'>\n                \n                <div style='position: absolute; top: 40%; left: 30%; bottom: 40%; right: 30%;'><h1 style='font-size: 60px; color: green;'>Correct!</h1></div>\n                \n                <div class='jspsych-image' id='jspsych-image-0' data-choice='0' style='top: 0;     left: 0;'><img style=\"width: 100%; height: 100%;\" src='../static/human_exp_images/task_inside/01_2.png' class=''></img></div>\n                <div class='jspsych-image' id='jspsych-image-1' data-choice='1' style='top: 0;     right: 0;'><img style=\"width: 100%; height: 100%;\" src='../static/human_exp_images/task_inside/01_0.png' class=''></img></div>\n                <div class='jspsych-image' id='jspsych-image-2' data-choice='2' style='bottom: 0;  left: 0;'><img style=\"width: 100%; height: 100%;\" src='../static/human_exp_images/task_inside/01_3.png' class='correct-choice'></img></div>\n                <div class='jspsych-image' id='jspsych-image-3' data-choice='3' style='bottom: 0;  right: 0;'><img style=\"width: 100%; height: 100%;\" src='../static/human_exp_images/task_inside/01_1.png' class=''></img></div>\n\n        </div>","response":null,"trial_type":"html-keyboard-response","trial_index":42,"time_elapsed":60255,"internal_node_id":"0.0-13.0-3.1"},{"rt":null,"trial_type":"image-click","trial_index":43,"time_elapsed":60595,"internal_node_id":"0.0-13.0-0.2"},{"rt":2587,"response":0,"all_choices":["../static/human_exp_images/task_inside/02_3.png","../static/human_exp_images/task_inside/02_2.png","../static/human_exp_images/task_inside/02_0.png","../static/human_exp_images/task_inside/02_1.png"],"task":"response","correct_response":0,"shuffled_array":[3,2,0,1],"catch_trial":false,"trial_type":"image-click","trial_index":44,"time_elapsed":63184,"internal_node_id":"0.0-13.0-1.2","mouse_tracking_data":[{"x":1040,"y":472,"t":1,"event":"mousemove"},{"x":1028,"y":472,"t":16,"event":"mousemove"},{"x":1010,"y":472,"t":32,"event":"mousemove"},{"x":996,"y":472,"t":50,"event":"mousemove"},{"x":982,"y":472,"t":66,"event":"mousemove"},{"x":975,"y":472,"t":83,"event":"mousemove"},{"x":972,"y":472,"t":100,"event":"mousemove"},{"x":967,"y":472,"t":117,"event":"mousemove"},{"x":965,"y":472,"t":134,"event":"mousemove"},{"x":965,"y":470,"t":1124,"event":"mousemove"},{"x":967,"y":470,"t":1307,"event":"mousemove"},{"x":969,"y":470,"t":1317,"event":"mousemove"},{"x":970,"y":470,"t":1335,"event":"mousemove"},{"x":974,"y":470,"t":1351,"event":"mousemove"},{"x":977,"y":470,"t":1368,"event":"mousemove"},{"x":984,"y":470,"t":1383,"event":"mousemove"},{"x":991,"y":470,"t":1401,"event":"mousemove"},{"x":998,"y":470,"t":1418,"event":"mousemove"},{"x":1006,"y":474,"t":1434,"event":"mousemove"},{"x":1011,"y":477,"t":1451,"event":"mousemove"},{"x":1016,"y":482,"t":1467,"event":"mousemove"},{"x":1022,"y":486,"t":1484,"event":"mousemove"},{"x":1025,"y":488,"t":1500,"event":"mousemove"},{"x":1027,"y":489,"t":1517,"event":"mousemove"},{"x":1030,"y":491,"t":1533,"event":"mousemove"},{"x":1030,"y":493,"t":1551,"event":"mousemove"},{"x":1032,"y":494,"t":1570,"event":"mousemove"},{"x":1033,"y":496,"t":1584,"event":"mousemove"},{"x":1035,"y":496,"t":1600,"event":"mousemove"},{"x":1037,"y":500,"t":1616,"event":"mousemove"},{"x":1042,"y":505,"t":1633,"event":"mousemove"},{"x":1049,"y":510,"t":1651,"event":"mousemove"},{"x":1054,"y":513,"t":1668,"event":"mousemove"},{"x":1064,"y":522,"t":1684,"event":"mousemove"},{"x":1074,"y":532,"t":1700,"event":"mousemove"},{"x":1085,"y":540,"t":1717,"event":"mousemove"},{"x":1095,"y":551,"t":1734,"event":"mousemove"},{"x":1109,"y":563,"t":1751,"event":"mousemove"},{"x":1117,"y":571,"t":1767,"event":"mousemove"},{"x":1127,"y":580,"t":1784,"event":"mousemove"},{"x":1136,"y":588,"t":1801,"event":"mousemove"},{"x":1141,"y":592,"t":1817,"event":"mousemove"},{"x":1145,"y":597,"t":1834,"event":"mousemove"},{"x":1143,"y":597,"t":2033,"event":"mousemove"},{"x":1136,"y":597,"t":2040,"event":"mousemove"},{"x":1119,"y":597,"t":2051,"event":"mousemove"},{"x":1087,"y":597,"t":2067,"event":"mousemove"},{"x":1062,"y":597,"t":2085,"event":"mousemove"},{"x":1021,"y":597,"t":2101,"event":"mousemove"},{"x":990,"y":597,"t":2118,"event":"mousemove"},{"x":950,"y":597,"t":2135,"event":"mousemove"},{"x":927,"y":597,"t":2151,"event":"mousemove"},{"x":896,"y":597,"t":2168,"event":"mousemove"},{"x":880,"y":597,"t":2184,"event":"mousemove"},{"x":871,"y":597,"t":2201,"event":"mousemove"},{"x":859,"y":597,"t":2218,"event":"mousemove"},{"x":850,"y":595,"t":2235,"event":"mousemove"},{"x":841,"y":577,"t":2251,"event":"mousemove"},{"x":832,"y":553,"t":2268,"event":"mousemove"},{"x":826,"y":530,"t":2284,"event":"mousemove"},{"x":819,"y":475,"t":2301,"event":"mousemove"},{"x":816,"y":405,"t":2317,"event":"mousemove"},{"x":816,"y":358,"t":2334,"event":"mousemove"},{"x":816,"y":296,"t":2351,"event":"mousemove"},{"x":816,"y":257,"t":2368,"event":"mousemove"},{"x":814,"y":233,"t":2384,"event":"mousemove"},{"x":810,"y":199,"t":2402,"event":"mousemove"},{"x":804,"y":183,"t":2419,"event":"mousemove"},{"x":801,"y":174,"t":2434,"event":"mousemove"},{"x":797,"y":171,"t":2452,"event":"mousemove"},{"x":795,"y":171,"t":2468,"event":"mousemove"}],"mouse_tracking_targets":{},"correct":true},{"rt":896,"stimulus":"<p>How confident are you about your choice ? (click on the bar)</p>","slider_start":50,"response":98,"trial_type":"html-slider-response","trial_index":45,"time_elapsed":64082,"internal_node_id":"0.0-13.0-2.2"},{"rt":null,"stimulus":"\n        <div id='jspsych-image' style='position: relative; width: min(80vw, 80vh); height: min(80vw, 80vh);'>\n                \n                <div style='position: absolute; top: 40%; left: 30%; bottom: 40%; right: 30%;'><h1 style='font-size: 60px; color: green;'>Correct!</h1></div>\n                \n                <div class='jspsych-image' id='jspsych-image-0' data-choice='0' style='top: 0;     left: 0;'><img style=\"width: 100%; height: 100%;\" src='../static/human_exp_images/task_inside/02_3.png' class='correct-choice'></img></div>\n                <div class='jspsych-image' id='jspsych-image-1' data-choice='1' style='top: 0;     right: 0;'><img style=\"width: 100%; height: 100%;\" src='../static/human_exp_images/task_inside/02_2.png' class=''></img></div>\n                <div class='jspsych-image' id='jspsych-image-2' data-choice='2' style='bottom: 0;  left: 0;'><img style=\"width: 100%; height: 100%;\" src='../static/human_exp_images/task_inside/02_0.png' class=''></img></div>\n                <div class='jspsych-image' id='jspsych-image-3' data-choice='3' style='bottom: 0;  right: 0;'><img style=\"width: 100%; height: 100%;\" src='../static/human_exp_images/task_inside/02_1.png' class=''></img></div>\n\n        </div>","response":null,"trial_type":"html-keyboard-response","trial_index":46,"time_elapsed":65585,"internal_node_id":"0.0-13.0-3.2"},{"rt":3220,"response":{"Q0":"nnkn"},"trial_type":"survey-text","trial_index":47,"time_elapsed":68810,"internal_node_id":"0.0-14.0"}]