[{"rt":null,"trial_type":"image-click","trial_index":4,"time_elapsed":6318,"internal_node_id":"0.0-4.0-0.0"},{"rt":679,"response":1,"all_choices":["../static/human_exp_images/practice_img/00_1.png","../static/human_exp_images/practice_img/00_3.png","../static/human_exp_images/practice_img/00_0.png","../static/human_exp_images/practice_img/00_2.png"],"task":"response","correct_response":1,"shuffled_array":[1,3,0,2],"catch_trial":false,"trial_type":"image-click","trial_index":5,"time_elapsed":7001,"internal_node_id":"0.0-4.0-1.0","mouse_tracking_data":[{"x":995,"y":534,"t":1,"event":"mousemove"},{"x":995,"y":503,"t":13,"event":"mousemove"},{"x":995,"y":493,"t":29,"event":"mousemove"},{"x":995,"y":488,"t":46,"event":"mousemove"},{"x":997,"y":487,"t":442,"event":"mousemove"},{"x":999,"y":482,"t":449,"event":"mousemove"},{"x":1006,"y":464,"t":463,"event":"mousemove"},{"x":1023,"y":426,"t":480,"event":"mousemove"},{"x":1048,"y":388,"t":496,"event":"mousemove"},{"x":1108,"y":325,"t":514,"event":"mousemove"},{"x":1129,"y":307,"t":530,"event":"mousemove"},{"x":1144,"y":299,"t":546,"event":"mousemove"},{"x":1155,"y":294,"t":564,"event":"mousemove"},{"x":1160,"y":294,"t":579,"event":"mousemove"},{"x":1160,"y":293,"t":597,"event":"mousemove"},{"x":1162,"y":293,"t":613,"event":"mousemove"}],"mouse_tracking_targets":{},"correct":true},{"rt":1463,"stimulus":"<p>How confident are you about your choice ? (click on the bar)</p>","slider_start":50,"response":96,"trial_type":"html-slider-response","trial_index":6,"time_elapsed":8467,"internal_node_id":"0.0-4.0-2.0"},{"rt":null,"stimulus":"\n        <div id='jspsych-image' style='position: relative; width: min(80vw, 80vh); height: min(80vw, 80vh);'>\n                \n                <div style='position: absolute; top: 40%; left: 30%; bottom: 40%; right: 30%;'><h1 style='font-size: 60px; color: green;'>Correct!</h1></div>\n                \n                <div class='jspsych-image' id='jspsych-image-0' data-choice='0' style='top: 0;     left: 0;'><img style=\"width: 100%; height: 100%;\" src='../static/human_exp_images/practice_img/00_1.png' class=''></img></div>\n                <div class='jspsych-image' id='jspsych-image-1' data-choice='1' style='top: 0;     right: 0;'><img style=\"width: 100%; height: 100%;\" src='../static/human_exp_images/practice_img/00_3.png' class='correct-choice'></img></div>\n                <div class='jspsych-image' id='jspsych-image-2' data-choice='2' style='bottom: 0;  left: 0;'><img style=\"width: 100%; height: 100%;\" src='../static/human_exp_images/practice_img/00_0.png' class=''></img></div>\n                <div class='jspsych-image' id='jspsych-image-3' data-choice='3' style='bottom: 0;  right: 0;'><img style=\"width: 100%; height: 100%;\" src='../static/human_exp_images/practice_img/00_2.png' class=''></img></div>\n\n        </div>","response":null,"trial_type":"html-keyboard-response","trial_index":7,"time_elapsed":9971,"internal_node_id":"0.0-4.0-3.0"},{"rt":null,"trial_type":"image-click","trial_index":8,"time_elapsed":10202,"internal_node_id":"0.0-4.0-0.1"},{"rt":4595,"response":1,"all_choices":["../static/human_exp_images/practice_img/01_1.png","../static/human_exp_images/practice_img/01_3.png","../static/human_exp_images/practice_img/01_2.png","../static/human_exp_images/practice_img/01_0.png"],"task":"response","correct_response":1,"shuffled_array":[1,3,2,0],"catch_trial":false,"trial_type":"image-click","trial_index":9,"time_elapsed":14799,"internal_node_id":"0.0-4.0-1.1","mouse_tracking_data":[{"x":1030,"y":531,"t":0,"event":"mousemove"},{"x":975,"y":531,"t":16,"event":"mousemove"},{"x":841,"y":522,"t":32,"event":"mousemove"},{"x":605,"y":418,"t":49,"event":"mousemove"},{"x":325,"y":312,"t":65,"event":"mousemove"},{"x":22,"y":214,"t":82,"event":"mousemove"},{"x":93,"y":247,"t":3785,"event":"mousemove"},{"x":246,"y":263,"t":3800,"event":"mousemove"},{"x":357,"y":274,"t":3818,"event":"mousemove"},{"x":512,"y":291,"t":3834,"event":"mousemove"},{"x":630,"y":301,"t":3851,"event":"mousemove"},{"x":701,"y":309,"t":3867,"event":"mousemove"},{"x":725,"y":309,"t":3884,"event":"mousemove"},{"x":737,"y":309,"t":3900,"event":"mousemove"},{"x":751,"y":309,"t":3918,"event":"mousemove"},{"x":762,"y":309,"t":3934,"event":"mousemove"},{"x":769,"y":309,"t":3951,"event":"mousemove"},{"x":769,"y":307,"t":4121,"event":"mousemove"},{"x":775,"y":307,"t":4157,"event":"mousemove"},{"x":799,"y":307,"t":4168,"event":"mousemove"},{"x":852,"y":307,"t":4185,"event":"mousemove"},{"x":904,"y":307,"t":4201,"event":"mousemove"},{"x":988,"y":307,"t":4219,"event":"mousemove"},{"x":1061,"y":307,"t":4234,"event":"mousemove"},{"x":1121,"y":307,"t":4252,"event":"mousemove"},{"x":1147,"y":307,"t":4267,"event":"mousemove"},{"x":1158,"y":307,"t":4285,"event":"mousemove"},{"x":1162,"y":307,"t":4300,"event":"mousemove"},{"x":1162,"y":305,"t":4485,"event":"mousemove"},{"x":1162,"y":304,"t":4502,"event":"mousemove"},{"x":1162,"y":302,"t":4518,"event":"mousemove"}],"mouse_tracking_targets":{},"correct":true},{"rt":1348,"stimulus":"<p>How confident are you about your choice ? (click on the bar)</p>","slider_start":50,"response":99,"trial_type":"html-slider-response","trial_index":10,"time_elapsed":16148,"internal_node_id":"0.0-4.0-2.1"},{"rt":null,"stimulus":"\n        <div id='jspsych-image' style='position: relative; width: min(80vw, 80vh); height: min(80vw, 80vh);'>\n                \n                <div style='position: absolute; top: 40%; left: 30%; bottom: 40%; right: 30%;'><h1 style='font-size: 60px; color: green;'>Correct!</h1></div>\n                \n                <div class='jspsych-image' id='jspsych-image-0' data-choice='0' style='top: 0;     left: 0;'><img style=\"width: 100%; height: 100%;\" src='../static/human_exp_images/practice_img/01_1.png' class=''></img></div>\n                <div class='jspsych-image' id='jspsych-image-1' data-choice='1' style='top: 0;     right: 0;'><img style=\"width: 100%; height: 100%;\" src='../static/human_exp_images/practice_img/01_3.png' class='correct-choice'></img></div>\n                <div class='jspsych-image' id='jspsych-image-2' data-choice='2' style='bottom: 0;  left: 0;'><img style=\"width: 100%; height: 100%;\" src='../static/human_exp_images/practice_img/01_2.png' class=''></img></div>\n                <div class='jspsych-image' id='jspsych-image-3' data-choice='3' style='bottom: 0;  right: 0;'><img style=\"width: 100%; height: 100%;\" src='../static/human_exp_images/practice_img/01_0.png' class=''></img></div>\n\n        </div>","response":null,"trial_type":"html-keyboard-response","trial_index":11,"time_elapsed":17651,"internal_node_id":"0.0-4.0-3.1"},{"rt":null,"trial_type":"image-click","trial_index":12,"time_elapsed":18258,"internal_node_id":"0.0-4.0-0.2"},{"rt":728,"response":1,"all_choices":["../static/human_exp_images/practice_img/02_1.png","../static/human_exp_images/practice_img/02_3.png","../static/human_exp_images/practice_img/02_2.png","../static/human_exp_images/practice_img/02_0.png"],"task":"response","correct_response":1,"shuffled_array":[1,3,2,0],"catch_trial":false,"trial_type":"image-click","trial_index":13,"time_elapsed":18988,"internal_node_id":"0.0-4.0-1.2","mouse_tracking_data":[{"x":1033,"y":447,"t":0,"event":"mousemove"},{"x":993,"y":447,"t":14,"event":"mousemove"},{"x":981,"y":447,"t":30,"event":"mousemove"},{"x":970,"y":447,"t":47,"event":"mousemove"},{"x":965,"y":447,"t":64,"event":"mousemove"},{"x":967,"y":447,"t":405,"event":"mousemove"},{"x":973,"y":445,"t":414,"event":"mousemove"},{"x":982,"y":442,"t":431,"event":"mousemove"},{"x":999,"y":430,"t":447,"event":"mousemove"},{"x":1021,"y":410,"t":464,"event":"mousemove"},{"x":1041,"y":394,"t":481,"event":"mousemove"},{"x":1057,"y":378,"t":497,"event":"mousemove"},{"x":1076,"y":363,"t":514,"event":"mousemove"},{"x":1098,"y":347,"t":531,"event":"mousemove"},{"x":1110,"y":341,"t":547,"event":"mousemove"},{"x":1132,"y":327,"t":565,"event":"mousemove"},{"x":1150,"y":317,"t":580,"event":"mousemove"},{"x":1162,"y":309,"t":597,"event":"mousemove"},{"x":1169,"y":303,"t":613,"event":"mousemove"},{"x":1173,"y":300,"t":631,"event":"mousemove"},{"x":1174,"y":300,"t":648,"event":"mousemove"}],"mouse_tracking_targets":{},"correct":true},{"rt":1808,"stimulus":"<p>How confident are you about your choice ? (click on the bar)</p>","slider_start":50,"response":100,"trial_type":"html-slider-response","trial_index":14,"time_elapsed":20799,"internal_node_id":"0.0-4.0-2.2"},{"rt":null,"stimulus":"\n        <div id='jspsych-image' style='position: relative; width: min(80vw, 80vh); height: min(80vw, 80vh);'>\n                \n                <div style='position: absolute; top: 40%; left: 30%; bottom: 40%; right: 30%;'><h1 style='font-size: 60px; color: green;'>Correct!</h1></div>\n                \n                <div class='jspsych-image' id='jspsych-image-0' data-choice='0' style='top: 0;     left: 0;'><img style=\"width: 100%; height: 100%;\" src='../static/human_exp_images/practice_img/02_1.png' class=''></img></div>\n                <div class='jspsych-image' id='jspsych-image-1' data-choice='1' style='top: 0;     right: 0;'><img style=\"width: 100%; height: 100%;\" src='../static/human_exp_images/practice_img/02_3.png' class='correct-choice'></img></div>\n                <div class='jspsych-image' id='jspsych-image-2' data-choice='2' style='bottom: 0;  left: 0;'><img style=\"width: 100%; height: 100%;\" src='../static/human_exp_images/practice_img/02_2.png' class=''></img></div>\n                <div class='jspsych-image' id='jspsych-image-3' data-choice='3' style='bottom: 0;  right: 0;'><img style=\"width: 100%; height: 100%;\" src='../static/human_exp_images/practice_img/02_0.png' class=''></img></div>\n\n        </div>","response":null,"trial_type":"html-keyboard-response","trial_index":15,"time_elapsed":22303,"internal_node_id":"0.0-4.0-3.2"}]