[{"rt":null,"trial_type":"image-click","trial_index":67,"time_elapsed":114235,"internal_node_id":"0.0-23.0-0.0"},{"rt":16532,"response":2,"all_choices":["../static/human_exp_images/task_shape_color/00_2.png","../static/human_exp_images/task_shape_color/00_1.png","../static/human_exp_images/task_shape_color/00_0.png","../static/human_exp_images/task_shape_color/00_3.png"],"task":"response","correct_response":3,"shuffled_array":[2,1,0,3],"catch_trial":false,"trial_type":"image-click","trial_index":68,"time_elapsed":130767,"internal_node_id":"0.0-23.0-1.0","mouse_tracking_data":[{"x":969,"y":523,"t":0,"event":"mousemove"},{"x":971,"y":495,"t":22,"event":"mousemove"},{"x":975,"y":479,"t":39,"event":"mousemove"},{"x":980,"y":471,"t":56,"event":"mousemove"},{"x":982,"y":466,"t":72,"event":"mousemove"},{"x":984,"y":466,"t":97,"event":"mousemove"},{"x":984,"y":464,"t":449,"event":"mousemove"},{"x":984,"y":466,"t":12641,"event":"mousemove"},{"x":984,"y":467,"t":12650,"event":"mousemove"},{"x":984,"y":469,"t":12675,"event":"mousemove"},{"x":984,"y":471,"t":12709,"event":"mousemove"},{"x":984,"y":472,"t":12719,"event":"mousemove"},{"x":984,"y":478,"t":12729,"event":"mousemove"},{"x":978,"y":484,"t":12745,"event":"mousemove"},{"x":977,"y":490,"t":12762,"event":"mousemove"},{"x":970,"y":498,"t":12778,"event":"mousemove"},{"x":966,"y":505,"t":12795,"event":"mousemove"},{"x":965,"y":510,"t":12813,"event":"mousemove"},{"x":963,"y":510,"t":12828,"event":"mousemove"},{"x":963,"y":512,"t":12846,"event":"mousemove"},{"x":963,"y":513,"t":12862,"event":"mousemove"},{"x":963,"y":515,"t":12879,"event":"mousemove"},{"x":961,"y":515,"t":12936,"event":"mousemove"},{"x":960,"y":517,"t":13201,"event":"mousemove"},{"x":956,"y":519,"t":13213,"event":"mousemove"},{"x":955,"y":519,"t":13229,"event":"mousemove"},{"x":955,"y":520,"t":13248,"event":"mousemove"},{"x":953,"y":520,"t":15876,"event":"mousemove"},{"x":951,"y":520,"t":15881,"event":"mousemove"},{"x":934,"y":520,"t":15897,"event":"mousemove"},{"x":912,"y":520,"t":15914,"event":"mousemove"},{"x":893,"y":522,"t":15932,"event":"mousemove"},{"x":885,"y":524,"t":15948,"event":"mousemove"},{"x":871,"y":525,"t":15965,"event":"mousemove"},{"x":862,"y":527,"t":15981,"event":"mousemove"},{"x":854,"y":529,"t":15998,"event":"mousemove"},{"x":844,"y":532,"t":16014,"event":"mousemove"},{"x":837,"y":534,"t":16031,"event":"mousemove"},{"x":830,"y":536,"t":16049,"event":"mousemove"},{"x":826,"y":536,"t":16064,"event":"mousemove"},{"x":821,"y":537,"t":16080,"event":"mousemove"},{"x":818,"y":539,"t":16097,"event":"mousemove"},{"x":814,"y":541,"t":16114,"event":"mousemove"},{"x":809,"y":544,"t":16131,"event":"mousemove"},{"x":808,"y":546,"t":16147,"event":"mousemove"},{"x":802,"y":548,"t":16165,"event":"mousemove"},{"x":799,"y":551,"t":16180,"event":"mousemove"},{"x":794,"y":554,"t":16198,"event":"mousemove"},{"x":787,"y":561,"t":16213,"event":"mousemove"},{"x":779,"y":570,"t":16231,"event":"mousemove"},{"x":770,"y":580,"t":16248,"event":"mousemove"},{"x":763,"y":587,"t":16264,"event":"mousemove"},{"x":755,"y":595,"t":16282,"event":"mousemove"},{"x":746,"y":606,"t":16298,"event":"mousemove"},{"x":741,"y":611,"t":16315,"event":"mousemove"},{"x":739,"y":613,"t":16331,"event":"mousemove"},{"x":738,"y":616,"t":16348,"event":"mousemove"},{"x":736,"y":618,"t":16364,"event":"mousemove"},{"x":734,"y":618,"t":16382,"event":"mousemove"},{"x":734,"y":619,"t":16397,"event":"mousemove"},{"x":732,"y":619,"t":16415,"event":"mousemove"},{"x":731,"y":621,"t":16431,"event":"mousemove"}],"mouse_tracking_targets":{},"correct":false},{"rt":1155,"stimulus":"<p>How confident are you about your choice ? (click on the bar)</p>","slider_start":50,"response":86,"trial_type":"html-slider-response","trial_index":69,"time_elapsed":131926,"internal_node_id":"0.0-23.0-2.0"},{"rt":null,"stimulus":"\n        <div id='jspsych-image' style='position: relative; width: min(80vw, 80vh); height: min(80vw, 80vh);'>\n                \n                <div style='position: absolute; top: 40%; left: 30%; bottom: 40%; right: 30%;'><h1 style='font-size: 60px; color: red'>Wrong</h1></div>\n                \n                <div class='jspsych-image' id='jspsych-image-0' data-choice='0' style='top: 0;     left: 0;'><img style=\"width: 100%; height: 100%;\" src='../static/human_exp_images/task_shape_color/00_2.png' class=''></img></div>\n                <div class='jspsych-image' id='jspsych-image-1' data-choice='1' style='top: 0;     right: 0;'><img style=\"width: 100%; height: 100%;\" src='../static/human_exp_images/task_shape_color/00_1.png' class=''></img></div>\n                <div class='jspsych-image' id='jspsych-image-2' data-choice='2' style='bottom: 0;  left: 0;'><img style=\"width: 100%; height: 100%;\" src='../static/human_exp_images/task_shape_color/00_0.png' class='wrong-choice'></img></div>\n                <div class='jspsych-image' id='jspsych-image-3' data-choice='3' style='bottom: 0;  right: 0;'><img style=\"width: 100%; height: 100%;\" src='../static/human_exp_images/task_shape_color/00_3.png' class='correct-choice'></img></div>\n\n        </div>","response":null,"trial_type":"html-keyboard-response","trial_index":70,"time_elapsed":134432,"internal_node_id":"0.0-23.0-3.0"},{"rt":null,"trial_type":"image-click","trial_index":71,"time_elapsed":135153,"internal_node_id":"0.0-23.0-0.1"},{"rt":6265,"response":1,"all_choices":["../static/human_exp_images/task_shape_color/01_1.png","../static/human_exp_images/task_shape_color/01_3.png","../static/human_exp_images/task_shape_color/01_2.png","../static/human_exp_images/task_shape_color/01_0.png"],"task":"response","correct_response":1,"shuffled_array":[1,3,2,0],"catch_trial":false,"trial_type":"image-click","trial_index":72,"time_elapsed":141425,"internal_node_id":"0.0-23.0-1.1","mouse_tracking_data":[{"x":1050,"y":479,"t":1,"event":"mousemove"},{"x":1020,"y":479,"t":10,"event":"mousemove"},{"x":1002,"y":479,"t":26,"event":"mousemove"},{"x":993,"y":479,"t":43,"event":"mousemove"},{"x":985,"y":479,"t":59,"event":"mousemove"},{"x":978,"y":479,"t":76,"event":"mousemove"},{"x":976,"y":479,"t":92,"event":"mousemove"},{"x":976,"y":480,"t":5649,"event":"mousemove"},{"x":978,"y":480,"t":5723,"event":"mousemove"},{"x":980,"y":480,"t":5731,"event":"mousemove"},{"x":986,"y":480,"t":5747,"event":"mousemove"},{"x":1002,"y":480,"t":5762,"event":"mousemove"},{"x":1017,"y":467,"t":5780,"event":"mousemove"},{"x":1029,"y":456,"t":5796,"event":"mousemove"},{"x":1033,"y":449,"t":5813,"event":"mousemove"},{"x":1034,"y":448,"t":5829,"event":"mousemove"},{"x":1036,"y":446,"t":5846,"event":"mousemove"},{"x":1038,"y":446,"t":5903,"event":"mousemove"},{"x":1038,"y":444,"t":5912,"event":"mousemove"},{"x":1041,"y":441,"t":5929,"event":"mousemove"},{"x":1050,"y":431,"t":5946,"event":"mousemove"},{"x":1060,"y":419,"t":5962,"event":"mousemove"},{"x":1075,"y":402,"t":5979,"event":"mousemove"},{"x":1094,"y":380,"t":5997,"event":"mousemove"},{"x":1108,"y":362,"t":6013,"event":"mousemove"},{"x":1121,"y":345,"t":6029,"event":"mousemove"},{"x":1129,"y":326,"t":6046,"event":"mousemove"},{"x":1141,"y":306,"t":6063,"event":"mousemove"},{"x":1147,"y":295,"t":6079,"event":"mousemove"},{"x":1149,"y":291,"t":6096,"event":"mousemove"},{"x":1150,"y":289,"t":6112,"event":"mousemove"},{"x":1150,"y":288,"t":6129,"event":"mousemove"}],"mouse_tracking_targets":{},"correct":true},{"rt":831,"stimulus":"<p>How confident are you about your choice ? (click on the bar)</p>","slider_start":50,"response":98,"trial_type":"html-slider-response","trial_index":73,"time_elapsed":142259,"internal_node_id":"0.0-23.0-2.1"},{"rt":null,"stimulus":"\n        <div id='jspsych-image' style='position: relative; width: min(80vw, 80vh); height: min(80vw, 80vh);'>\n                \n                <div style='position: absolute; top: 40%; left: 30%; bottom: 40%; right: 30%;'><h1 style='font-size: 60px; color: green;'>Correct!</h1></div>\n                \n                <div class='jspsych-image' id='jspsych-image-0' data-choice='0' style='top: 0;     left: 0;'><img style=\"width: 100%; height: 100%;\" src='../static/human_exp_images/task_shape_color/01_1.png' class=''></img></div>\n                <div class='jspsych-image' id='jspsych-image-1' data-choice='1' style='top: 0;     right: 0;'><img style=\"width: 100%; height: 100%;\" src='../static/human_exp_images/task_shape_color/01_3.png' class='correct-choice'></img></div>\n                <div class='jspsych-image' id='jspsych-image-2' data-choice='2' style='bottom: 0;  left: 0;'><img style=\"width: 100%; height: 100%;\" src='../static/human_exp_images/task_shape_color/01_2.png' class=''></img></div>\n                <div class='jspsych-image' id='jspsych-image-3' data-choice='3' style='bottom: 0;  right: 0;'><img style=\"width: 100%; height: 100%;\" src='../static/human_exp_images/task_shape_color/01_0.png' class=''></img></div>\n\n        </div>","response":null,"trial_type":"html-keyboard-response","trial_index":74,"time_elapsed":143763,"internal_node_id":"0.0-23.0-3.1"},{"rt":null,"trial_type":"image-click","trial_index":75,"time_elapsed":144290,"internal_node_id":"0.0-23.0-0.2"},{"rt":3325,"response":1,"all_choices":["../static/human_exp_images/task_shape_color/02_1.png","../static/human_exp_images/task_shape_color/02_3.png","../static/human_exp_images/task_shape_color/02_0.png","../static/human_exp_images/task_shape_color/02_2.png"],"task":"response","correct_response":1,"shuffled_array":[1,3,0,2],"catch_trial":false,"trial_type":"image-click","trial_index":76,"time_elapsed":147617,"internal_node_id":"0.0-23.0-1.2","mouse_tracking_data":[{"x":1048,"y":469,"t":0,"event":"mousemove"},{"x":1031,"y":469,"t":16,"event":"mousemove"},{"x":1021,"y":469,"t":33,"event":"mousemove"},{"x":1014,"y":469,"t":50,"event":"mousemove"},{"x":1014,"y":468,"t":194,"event":"mousemove"},{"x":1014,"y":466,"t":239,"event":"mousemove"},{"x":1016,"y":466,"t":796,"event":"mousemove"},{"x":1016,"y":464,"t":2555,"event":"mousemove"},{"x":1016,"y":463,"t":2609,"event":"mousemove"},{"x":1017,"y":461,"t":2627,"event":"mousemove"},{"x":1017,"y":459,"t":2643,"event":"mousemove"},{"x":1019,"y":458,"t":2652,"event":"mousemove"},{"x":1022,"y":452,"t":2667,"event":"mousemove"},{"x":1035,"y":433,"t":2685,"event":"mousemove"},{"x":1047,"y":415,"t":2700,"event":"mousemove"},{"x":1056,"y":403,"t":2718,"event":"mousemove"},{"x":1059,"y":397,"t":2734,"event":"mousemove"},{"x":1062,"y":393,"t":2751,"event":"mousemove"},{"x":1064,"y":390,"t":2769,"event":"mousemove"},{"x":1066,"y":388,"t":2784,"event":"mousemove"},{"x":1066,"y":386,"t":2808,"event":"mousemove"},{"x":1066,"y":385,"t":2944,"event":"mousemove"},{"x":1066,"y":383,"t":3008,"event":"mousemove"},{"x":1068,"y":381,"t":3043,"event":"mousemove"},{"x":1069,"y":381,"t":3053,"event":"mousemove"},{"x":1076,"y":374,"t":3068,"event":"mousemove"},{"x":1092,"y":355,"t":3085,"event":"mousemove"},{"x":1116,"y":330,"t":3102,"event":"mousemove"},{"x":1146,"y":298,"t":3119,"event":"mousemove"},{"x":1178,"y":269,"t":3135,"event":"mousemove"},{"x":1199,"y":247,"t":3151,"event":"mousemove"},{"x":1205,"y":239,"t":3168,"event":"mousemove"},{"x":1209,"y":232,"t":3185,"event":"mousemove"},{"x":1209,"y":230,"t":3215,"event":"mousemove"}],"mouse_tracking_targets":{},"correct":true},{"rt":912,"stimulus":"<p>How confident are you about your choice ? (click on the bar)</p>","slider_start":50,"response":100,"trial_type":"html-slider-response","trial_index":77,"time_elapsed":148532,"internal_node_id":"0.0-23.0-2.2"},{"rt":null,"stimulus":"\n        <div id='jspsych-image' style='position: relative; width: min(80vw, 80vh); height: min(80vw, 80vh);'>\n                \n                <div style='position: absolute; top: 40%; left: 30%; bottom: 40%; right: 30%;'><h1 style='font-size: 60px; color: green;'>Correct!</h1></div>\n                \n                <div class='jspsych-image' id='jspsych-image-0' data-choice='0' style='top: 0;     left: 0;'><img style=\"width: 100%; height: 100%;\" src='../static/human_exp_images/task_shape_color/02_1.png' class=''></img></div>\n                <div class='jspsych-image' id='jspsych-image-1' data-choice='1' style='top: 0;     right: 0;'><img style=\"width: 100%; height: 100%;\" src='../static/human_exp_images/task_shape_color/02_3.png' class='correct-choice'></img></div>\n                <div class='jspsych-image' id='jspsych-image-2' data-choice='2' style='bottom: 0;  left: 0;'><img style=\"width: 100%; height: 100%;\" src='../static/human_exp_images/task_shape_color/02_0.png' class=''></img></div>\n                <div class='jspsych-image' id='jspsych-image-3' data-choice='3' style='bottom: 0;  right: 0;'><img style=\"width: 100%; height: 100%;\" src='../static/human_exp_images/task_shape_color/02_2.png' class=''></img></div>\n\n        </div>","response":null,"trial_type":"html-keyboard-response","trial_index":78,"time_elapsed":150035,"internal_node_id":"0.0-23.0-3.2"},{"rt":4961,"response":{"Q0":"llol"},"trial_type":"survey-text","trial_index":79,"time_elapsed":155003,"internal_node_id":"0.0-24.0"}]