[{"rt":null,"trial_type":"image-click","trial_index":51,"time_elapsed":75337,"internal_node_id":"0.0-18.0-0.0"},{"rt":4190,"response":2,"all_choices":["../static/human_exp_images/task_color_inside_1/00_0.png","../static/human_exp_images/task_color_inside_1/00_2.png","../static/human_exp_images/task_color_inside_1/00_3.png","../static/human_exp_images/task_color_inside_1/00_1.png"],"task":"response","correct_response":2,"shuffled_array":[0,2,3,1],"catch_trial":false,"trial_type":"image-click","trial_index":52,"time_elapsed":79532,"internal_node_id":"0.0-18.0-1.0","mouse_tracking_data":[{"x":885,"y":479,"t":2,"event":"mousemove"},{"x":895,"y":476,"t":13,"event":"mousemove"},{"x":907,"y":476,"t":30,"event":"mousemove"},{"x":911,"y":474,"t":46,"event":"mousemove"},{"x":916,"y":474,"t":63,"event":"mousemove"},{"x":921,"y":474,"t":79,"event":"mousemove"},{"x":924,"y":474,"t":96,"event":"mousemove"},{"x":926,"y":474,"t":120,"event":"mousemove"},{"x":928,"y":474,"t":218,"event":"mousemove"},{"x":930,"y":474,"t":230,"event":"mousemove"},{"x":930,"y":472,"t":485,"event":"mousemove"},{"x":930,"y":470,"t":549,"event":"mousemove"},{"x":930,"y":469,"t":1097,"event":"mousemove"},{"x":930,"y":470,"t":2898,"event":"mousemove"},{"x":924,"y":479,"t":2914,"event":"mousemove"},{"x":918,"y":484,"t":2930,"event":"mousemove"},{"x":906,"y":496,"t":2947,"event":"mousemove"},{"x":894,"y":508,"t":2964,"event":"mousemove"},{"x":883,"y":518,"t":2981,"event":"mousemove"},{"x":875,"y":525,"t":2997,"event":"mousemove"},{"x":866,"y":535,"t":3014,"event":"mousemove"},{"x":860,"y":544,"t":3031,"event":"mousemove"},{"x":848,"y":558,"t":3047,"event":"mousemove"},{"x":837,"y":571,"t":3065,"event":"mousemove"},{"x":825,"y":585,"t":3080,"event":"mousemove"},{"x":817,"y":593,"t":3098,"event":"mousemove"},{"x":812,"y":599,"t":3114,"event":"mousemove"},{"x":805,"y":604,"t":3131,"event":"mousemove"},{"x":800,"y":609,"t":3147,"event":"mousemove"},{"x":795,"y":614,"t":3165,"event":"mousemove"},{"x":791,"y":619,"t":3181,"event":"mousemove"},{"x":786,"y":624,"t":3198,"event":"mousemove"},{"x":784,"y":626,"t":3214,"event":"mousemove"},{"x":784,"y":628,"t":3231,"event":"mousemove"},{"x":783,"y":629,"t":3248,"event":"mousemove"}],"mouse_tracking_targets":{},"correct":true},{"rt":1430,"stimulus":"<p>How confident are you about your choice ? (click on the bar)</p>","slider_start":50,"response":93,"trial_type":"html-slider-response","trial_index":53,"time_elapsed":80964,"internal_node_id":"0.0-18.0-2.0"},{"rt":null,"stimulus":"\n        <div id='jspsych-image' style='position: relative; width: min(80vw, 80vh); height: min(80vw, 80vh);'>\n                \n                <div style='position: absolute; top: 40%; left: 30%; bottom: 40%; right: 30%;'><h1 style='font-size: 60px; color: green;'>Correct!</h1></div>\n                \n                <div class='jspsych-image' id='jspsych-image-0' data-choice='0' style='top: 0;     left: 0;'><img style=\"width: 100%; height: 100%;\" src='../static/human_exp_images/task_color_inside_1/00_0.png' class=''></img></div>\n                <div class='jspsych-image' id='jspsych-image-1' data-choice='1' style='top: 0;     right: 0;'><img style=\"width: 100%; height: 100%;\" src='../static/human_exp_images/task_color_inside_1/00_2.png' class=''></img></div>\n                <div class='jspsych-image' id='jspsych-image-2' data-choice='2' style='bottom: 0;  left: 0;'><img style=\"width: 100%; height: 100%;\" src='../static/human_exp_images/task_color_inside_1/00_3.png' class='correct-choice'></img></div>\n                <div class='jspsych-image' id='jspsych-image-3' data-choice='3' style='bottom: 0;  right: 0;'><img style=\"width: 100%; height: 100%;\" src='../static/human_exp_images/task_color_inside_1/00_1.png' class=''></img></div>\n\n        </div>","response":null,"trial_type":"html-keyboard-response","trial_index":54,"time_elapsed":82468,"internal_node_id":"0.0-18.0-3.0"},{"rt":null,"trial_type":"image-click","trial_index":55,"time_elapsed":83125,"internal_node_id":"0.0-18.0-0.1"},{"rt":13240,"response":3,"all_choices":["../static/human_exp_images/task_color_inside_1/01_2.png","../static/human_exp_images/task_color_inside_1/01_1.png","../static/human_exp_images/task_color_inside_1/01_0.png","../static/human_exp_images/task_color_inside_1/01_3.png"],"task":"response","correct_response":3,"shuffled_array":[2,1,0,3],"catch_trial":false,"trial_type":"image-click","trial_index":56,"time_elapsed":96367,"internal_node_id":"0.0-18.0-1.1","mouse_tracking_data":[{"x":1040,"y":473,"t":1,"event":"mousemove"},{"x":1005,"y":473,"t":14,"event":"mousemove"},{"x":979,"y":473,"t":30,"event":"mousemove"},{"x":967,"y":473,"t":48,"event":"mousemove"},{"x":962,"y":473,"t":64,"event":"mousemove"},{"x":964,"y":473,"t":374,"event":"mousemove"},{"x":965,"y":473,"t":401,"event":"mousemove"},{"x":967,"y":473,"t":419,"event":"mousemove"},{"x":969,"y":473,"t":457,"event":"mousemove"},{"x":970,"y":473,"t":958,"event":"mousemove"},{"x":972,"y":473,"t":2446,"event":"mousemove"},{"x":973,"y":473,"t":3350,"event":"mousemove"},{"x":975,"y":473,"t":4253,"event":"mousemove"},{"x":976,"y":473,"t":6214,"event":"mousemove"},{"x":979,"y":473,"t":11904,"event":"mousemove"},{"x":988,"y":473,"t":11921,"event":"mousemove"},{"x":998,"y":473,"t":11937,"event":"mousemove"},{"x":1009,"y":473,"t":11954,"event":"mousemove"},{"x":1019,"y":478,"t":11970,"event":"mousemove"},{"x":1026,"y":483,"t":11987,"event":"mousemove"},{"x":1033,"y":486,"t":12003,"event":"mousemove"},{"x":1036,"y":490,"t":12020,"event":"mousemove"},{"x":1042,"y":492,"t":12037,"event":"mousemove"},{"x":1045,"y":494,"t":12053,"event":"mousemove"},{"x":1047,"y":494,"t":12251,"event":"mousemove"},{"x":1048,"y":494,"t":12268,"event":"mousemove"},{"x":1050,"y":494,"t":12296,"event":"mousemove"},{"x":1052,"y":494,"t":12377,"event":"mousemove"},{"x":1054,"y":494,"t":12395,"event":"mousemove"},{"x":1055,"y":494,"t":12422,"event":"mousemove"},{"x":1057,"y":494,"t":12449,"event":"mousemove"},{"x":1059,"y":495,"t":12495,"event":"mousemove"},{"x":1059,"y":497,"t":12505,"event":"mousemove"},{"x":1060,"y":497,"t":12521,"event":"mousemove"},{"x":1062,"y":500,"t":12537,"event":"mousemove"},{"x":1064,"y":504,"t":12554,"event":"mousemove"},{"x":1065,"y":507,"t":12571,"event":"mousemove"},{"x":1067,"y":509,"t":12587,"event":"mousemove"},{"x":1071,"y":514,"t":12604,"event":"mousemove"},{"x":1072,"y":516,"t":12621,"event":"mousemove"},{"x":1076,"y":521,"t":12637,"event":"mousemove"},{"x":1079,"y":526,"t":12654,"event":"mousemove"},{"x":1083,"y":531,"t":12671,"event":"mousemove"},{"x":1086,"y":536,"t":12687,"event":"mousemove"},{"x":1088,"y":538,"t":12704,"event":"mousemove"},{"x":1088,"y":540,"t":12721,"event":"mousemove"},{"x":1089,"y":541,"t":12738,"event":"mousemove"},{"x":1091,"y":543,"t":12754,"event":"mousemove"},{"x":1093,"y":545,"t":12771,"event":"mousemove"},{"x":1095,"y":547,"t":12788,"event":"mousemove"},{"x":1095,"y":548,"t":12804,"event":"mousemove"},{"x":1096,"y":548,"t":12859,"event":"mousemove"},{"x":1098,"y":550,"t":12921,"event":"mousemove"},{"x":1100,"y":552,"t":12949,"event":"mousemove"},{"x":1101,"y":553,"t":12967,"event":"mousemove"},{"x":1101,"y":555,"t":12977,"event":"mousemove"},{"x":1103,"y":555,"t":12988,"event":"mousemove"},{"x":1103,"y":559,"t":13004,"event":"mousemove"},{"x":1106,"y":562,"t":13021,"event":"mousemove"},{"x":1106,"y":567,"t":13038,"event":"mousemove"},{"x":1108,"y":570,"t":13055,"event":"mousemove"},{"x":1110,"y":574,"t":13072,"event":"mousemove"},{"x":1112,"y":579,"t":13088,"event":"mousemove"},{"x":1113,"y":582,"t":13105,"event":"mousemove"},{"x":1115,"y":586,"t":13121,"event":"mousemove"},{"x":1115,"y":589,"t":13138,"event":"mousemove"},{"x":1117,"y":591,"t":13154,"event":"mousemove"},{"x":1118,"y":594,"t":13172,"event":"mousemove"},{"x":1120,"y":596,"t":13188,"event":"mousemove"},{"x":1120,"y":598,"t":13212,"event":"mousemove"}],"mouse_tracking_targets":{},"correct":true},{"rt":879,"stimulus":"<p>How confident are you about your choice ? (click on the bar)</p>","slider_start":50,"response":95,"trial_type":"html-slider-response","trial_index":57,"time_elapsed":97249,"internal_node_id":"0.0-18.0-2.1"},{"rt":null,"stimulus":"\n        <div id='jspsych-image' style='position: relative; width: min(80vw, 80vh); height: min(80vw, 80vh);'>\n                \n                <div style='position: absolute; top: 40%; left: 30%; bottom: 40%; right: 30%;'><h1 style='font-size: 60px; color: green;'>Correct!</h1></div>\n                \n                <div class='jspsych-image' id='jspsych-image-0' data-choice='0' style='top: 0;     left: 0;'><img style=\"width: 100%; height: 100%;\" src='../static/human_exp_images/task_color_inside_1/01_2.png' class=''></img></div>\n                <div class='jspsych-image' id='jspsych-image-1' data-choice='1' style='top: 0;     right: 0;'><img style=\"width: 100%; height: 100%;\" src='../static/human_exp_images/task_color_inside_1/01_1.png' class=''></img></div>\n                <div class='jspsych-image' id='jspsych-image-2' data-choice='2' style='bottom: 0;  left: 0;'><img style=\"width: 100%; height: 100%;\" src='../static/human_exp_images/task_color_inside_1/01_0.png' class=''></img></div>\n                <div class='jspsych-image' id='jspsych-image-3' data-choice='3' style='bottom: 0;  right: 0;'><img style=\"width: 100%; height: 100%;\" src='../static/human_exp_images/task_color_inside_1/01_3.png' class='correct-choice'></img></div>\n\n        </div>","response":null,"trial_type":"html-keyboard-response","trial_index":58,"time_elapsed":98754,"internal_node_id":"0.0-18.0-3.1"},{"rt":null,"trial_type":"image-click","trial_index":59,"time_elapsed":99183,"internal_node_id":"0.0-18.0-0.2"},{"rt":4081,"response":0,"all_choices":["../static/human_exp_images/task_color_inside_1/02_3.png","../static/human_exp_images/task_color_inside_1/02_1.png","../static/human_exp_images/task_color_inside_1/02_2.png","../static/human_exp_images/task_color_inside_1/02_0.png"],"task":"response","correct_response":0,"shuffled_array":[3,1,2,0],"catch_trial":false,"trial_type":"image-click","trial_index":60,"time_elapsed":103268,"internal_node_id":"0.0-18.0-1.2","mouse_tracking_data":[{"x":1032,"y":501,"t":1,"event":"mousemove"},{"x":1003,"y":501,"t":13,"event":"mousemove"},{"x":974,"y":501,"t":31,"event":"mousemove"},{"x":962,"y":501,"t":47,"event":"mousemove"},{"x":957,"y":501,"t":64,"event":"mousemove"},{"x":958,"y":501,"t":222,"event":"mousemove"},{"x":960,"y":501,"t":230,"event":"mousemove"},{"x":967,"y":501,"t":247,"event":"mousemove"},{"x":970,"y":501,"t":263,"event":"mousemove"},{"x":974,"y":501,"t":281,"event":"mousemove"},{"x":975,"y":501,"t":297,"event":"mousemove"},{"x":977,"y":501,"t":314,"event":"mousemove"},{"x":979,"y":501,"t":332,"event":"mousemove"},{"x":980,"y":501,"t":350,"event":"mousemove"},{"x":982,"y":501,"t":378,"event":"mousemove"},{"x":984,"y":501,"t":433,"event":"mousemove"},{"x":984,"y":502,"t":2190,"event":"mousemove"},{"x":984,"y":504,"t":2197,"event":"mousemove"},{"x":984,"y":507,"t":2215,"event":"mousemove"},{"x":984,"y":509,"t":2231,"event":"mousemove"},{"x":984,"y":511,"t":2260,"event":"mousemove"},{"x":984,"y":512,"t":2276,"event":"mousemove"},{"x":982,"y":512,"t":2368,"event":"mousemove"},{"x":977,"y":512,"t":2381,"event":"mousemove"},{"x":970,"y":512,"t":2398,"event":"mousemove"},{"x":965,"y":512,"t":2415,"event":"mousemove"},{"x":962,"y":512,"t":2431,"event":"mousemove"},{"x":958,"y":511,"t":2449,"event":"mousemove"},{"x":953,"y":506,"t":2464,"event":"mousemove"},{"x":948,"y":500,"t":2481,"event":"mousemove"},{"x":943,"y":497,"t":2499,"event":"mousemove"},{"x":938,"y":494,"t":2514,"event":"mousemove"},{"x":934,"y":488,"t":2532,"event":"mousemove"},{"x":931,"y":487,"t":2549,"event":"mousemove"},{"x":922,"y":478,"t":2565,"event":"mousemove"},{"x":914,"y":471,"t":2581,"event":"mousemove"},{"x":905,"y":465,"t":2598,"event":"mousemove"},{"x":897,"y":456,"t":2615,"event":"mousemove"},{"x":888,"y":448,"t":2631,"event":"mousemove"},{"x":881,"y":439,"t":2648,"event":"mousemove"},{"x":871,"y":427,"t":2664,"event":"mousemove"},{"x":863,"y":417,"t":2682,"event":"mousemove"},{"x":858,"y":408,"t":2698,"event":"mousemove"},{"x":852,"y":401,"t":2715,"event":"mousemove"},{"x":851,"y":396,"t":2731,"event":"mousemove"},{"x":844,"y":389,"t":2748,"event":"mousemove"},{"x":839,"y":383,"t":2765,"event":"mousemove"},{"x":834,"y":376,"t":2781,"event":"mousemove"},{"x":828,"y":371,"t":2798,"event":"mousemove"},{"x":825,"y":366,"t":2815,"event":"mousemove"},{"x":822,"y":360,"t":2832,"event":"mousemove"},{"x":820,"y":359,"t":2848,"event":"mousemove"},{"x":817,"y":355,"t":2866,"event":"mousemove"},{"x":815,"y":350,"t":2881,"event":"mousemove"},{"x":811,"y":345,"t":2899,"event":"mousemove"},{"x":810,"y":340,"t":2916,"event":"mousemove"},{"x":806,"y":335,"t":2932,"event":"mousemove"},{"x":805,"y":331,"t":2949,"event":"mousemove"},{"x":803,"y":326,"t":2964,"event":"mousemove"},{"x":801,"y":325,"t":2982,"event":"mousemove"},{"x":801,"y":321,"t":2998,"event":"mousemove"},{"x":799,"y":319,"t":3015,"event":"mousemove"},{"x":799,"y":318,"t":3031,"event":"mousemove"},{"x":799,"y":316,"t":3048,"event":"mousemove"},{"x":798,"y":314,"t":3065,"event":"mousemove"},{"x":798,"y":313,"t":3082,"event":"mousemove"},{"x":798,"y":311,"t":3115,"event":"mousemove"},{"x":798,"y":309,"t":3169,"event":"mousemove"}],"mouse_tracking_targets":{},"correct":true},{"rt":1108,"stimulus":"<p>How confident are you about your choice ? (click on the bar)</p>","slider_start":50,"response":94,"trial_type":"html-slider-response","trial_index":61,"time_elapsed":104378,"internal_node_id":"0.0-18.0-2.2"},{"rt":null,"stimulus":"\n        <div id='jspsych-image' style='position: relative; width: min(80vw, 80vh); height: min(80vw, 80vh);'>\n                \n                <div style='position: absolute; top: 40%; left: 30%; bottom: 40%; right: 30%;'><h1 style='font-size: 60px; color: green;'>Correct!</h1></div>\n                \n                <div class='jspsych-image' id='jspsych-image-0' data-choice='0' style='top: 0;     left: 0;'><img style=\"width: 100%; height: 100%;\" src='../static/human_exp_images/task_color_inside_1/02_3.png' class='correct-choice'></img></div>\n                <div class='jspsych-image' id='jspsych-image-1' data-choice='1' style='top: 0;     right: 0;'><img style=\"width: 100%; height: 100%;\" src='../static/human_exp_images/task_color_inside_1/02_1.png' class=''></img></div>\n                <div class='jspsych-image' id='jspsych-image-2' data-choice='2' style='bottom: 0;  left: 0;'><img style=\"width: 100%; height: 100%;\" src='../static/human_exp_images/task_color_inside_1/02_2.png' class=''></img></div>\n                <div class='jspsych-image' id='jspsych-image-3' data-choice='3' style='bottom: 0;  right: 0;'><img style=\"width: 100%; height: 100%;\" src='../static/human_exp_images/task_color_inside_1/02_0.png' class=''></img></div>\n\n        </div>","response":null,"trial_type":"html-keyboard-response","trial_index":62,"time_elapsed":105882,"internal_node_id":"0.0-18.0-3.2"},{"rt":5874,"response":{"Q0":"mmm"},"trial_type":"survey-text","trial_index":63,"time_elapsed":111762,"internal_node_id":"0.0-19.0"}]