[{"rt":null,"trial_type":"image-click","trial_index":99,"time_elapsed":255324,"internal_node_id":"0.0-33.0-0.0"},{"rt":16733,"response":0,"all_choices":["../static/human_exp_images/task_flip_contact_1/00_3.png","../static/human_exp_images/task_flip_contact_1/00_1.png","../static/human_exp_images/task_flip_contact_1/00_0.png","../static/human_exp_images/task_flip_contact_1/00_2.png"],"task":"response","correct_response":0,"shuffled_array":[3,1,0,2],"catch_trial":false,"trial_type":"image-click","trial_index":100,"time_elapsed":272060,"internal_node_id":"0.0-33.0-1.0","mouse_tracking_data":[{"x":984,"y":509,"t":16321,"event":"mousemove"},{"x":982,"y":509,"t":16332,"event":"mousemove"},{"x":981,"y":507,"t":16348,"event":"mousemove"},{"x":970,"y":500,"t":16364,"event":"mousemove"},{"x":957,"y":486,"t":16381,"event":"mousemove"},{"x":935,"y":461,"t":16397,"event":"mousemove"},{"x":914,"y":428,"t":16414,"event":"mousemove"},{"x":890,"y":387,"t":16431,"event":"mousemove"},{"x":869,"y":356,"t":16447,"event":"mousemove"},{"x":839,"y":318,"t":16465,"event":"mousemove"},{"x":818,"y":295,"t":16481,"event":"mousemove"},{"x":808,"y":281,"t":16498,"event":"mousemove"},{"x":801,"y":271,"t":16514,"event":"mousemove"},{"x":794,"y":263,"t":16531,"event":"mousemove"},{"x":790,"y":261,"t":16547,"event":"mousemove"},{"x":789,"y":259,"t":16564,"event":"mousemove"}],"mouse_tracking_targets":{},"correct":true},{"rt":890,"stimulus":"<p>How confident are you about your choice ? (click on the bar)</p>","slider_start":50,"response":86,"trial_type":"html-slider-response","trial_index":101,"time_elapsed":272953,"internal_node_id":"0.0-33.0-2.0"},{"rt":null,"stimulus":"\n        <div id='jspsych-image' style='position: relative; width: min(80vw, 80vh); height: min(80vw, 80vh);'>\n                \n                <div style='position: absolute; top: 40%; left: 30%; bottom: 40%; right: 30%;'><h1 style='font-size: 60px; color: green;'>Correct!</h1></div>\n                \n                <div class='jspsych-image' id='jspsych-image-0' data-choice='0' style='top: 0;     left: 0;'><img style=\"width: 100%; height: 100%;\" src='../static/human_exp_images/task_flip_contact_1/00_3.png' class='correct-choice'></img></div>\n                <div class='jspsych-image' id='jspsych-image-1' data-choice='1' style='top: 0;     right: 0;'><img style=\"width: 100%; height: 100%;\" src='../static/human_exp_images/task_flip_contact_1/00_1.png' class=''></img></div>\n                <div class='jspsych-image' id='jspsych-image-2' data-choice='2' style='bottom: 0;  left: 0;'><img style=\"width: 100%; height: 100%;\" src='../static/human_exp_images/task_flip_contact_1/00_0.png' class=''></img></div>\n                <div class='jspsych-image' id='jspsych-image-3' data-choice='3' style='bottom: 0;  right: 0;'><img style=\"width: 100%; height: 100%;\" src='../static/human_exp_images/task_flip_contact_1/00_2.png' class=''></img></div>\n\n        </div>","response":null,"trial_type":"html-keyboard-response","trial_index":102,"time_elapsed":274457,"internal_node_id":"0.0-33.0-3.0"},{"rt":null,"trial_type":"image-click","trial_index":103,"time_elapsed":274959,"internal_node_id":"0.0-33.0-0.1"},{"rt":7018,"response":1,"all_choices":["../static/human_exp_images/task_flip_contact_1/01_2.png","../static/human_exp_images/task_flip_contact_1/01_3.png","../static/human_exp_images/task_flip_contact_1/01_0.png","../static/human_exp_images/task_flip_contact_1/01_1.png"],"task":"response","correct_response":1,"shuffled_array":[2,3,0,1],"catch_trial":false,"trial_type":"image-click","trial_index":104,"time_elapsed":281980,"internal_node_id":"0.0-33.0-1.1","mouse_tracking_data":[{"x":1010,"y":469,"t":1,"event":"mousemove"},{"x":961,"y":459,"t":14,"event":"mousemove"},{"x":934,"y":456,"t":31,"event":"mousemove"},{"x":916,"y":454,"t":47,"event":"mousemove"},{"x":909,"y":452,"t":64,"event":"mousemove"},{"x":906,"y":452,"t":81,"event":"mousemove"},{"x":906,"y":450,"t":190,"event":"mousemove"},{"x":906,"y":448,"t":215,"event":"mousemove"},{"x":906,"y":447,"t":242,"event":"mousemove"},{"x":908,"y":447,"t":297,"event":"mousemove"},{"x":909,"y":447,"t":315,"event":"mousemove"},{"x":911,"y":447,"t":331,"event":"mousemove"},{"x":913,"y":447,"t":348,"event":"mousemove"},{"x":915,"y":447,"t":398,"event":"mousemove"},{"x":915,"y":445,"t":710,"event":"mousemove"},{"x":916,"y":445,"t":835,"event":"mousemove"},{"x":918,"y":445,"t":1479,"event":"mousemove"},{"x":918,"y":443,"t":1766,"event":"mousemove"},{"x":919,"y":443,"t":2175,"event":"mousemove"},{"x":919,"y":442,"t":2487,"event":"mousemove"},{"x":919,"y":441,"t":3136,"event":"mousemove"},{"x":921,"y":439,"t":6140,"event":"mousemove"},{"x":923,"y":437,"t":6158,"event":"mousemove"},{"x":924,"y":436,"t":6186,"event":"mousemove"},{"x":929,"y":432,"t":6200,"event":"mousemove"},{"x":949,"y":416,"t":6218,"event":"mousemove"},{"x":995,"y":380,"t":6233,"event":"mousemove"},{"x":1089,"y":308,"t":6252,"event":"mousemove"},{"x":1221,"y":211,"t":6268,"event":"mousemove"},{"x":1286,"y":169,"t":6284,"event":"mousemove"},{"x":1369,"y":110,"t":6302,"event":"mousemove"},{"x":1395,"y":94,"t":6318,"event":"mousemove"},{"x":1400,"y":91,"t":6334,"event":"mousemove"},{"x":1398,"y":91,"t":6599,"event":"mousemove"},{"x":1393,"y":91,"t":6604,"event":"mousemove"},{"x":1385,"y":91,"t":6617,"event":"mousemove"},{"x":1343,"y":120,"t":6635,"event":"mousemove"},{"x":1316,"y":140,"t":6652,"event":"mousemove"},{"x":1299,"y":152,"t":6668,"event":"mousemove"},{"x":1283,"y":163,"t":6684,"event":"mousemove"},{"x":1278,"y":168,"t":6701,"event":"mousemove"},{"x":1273,"y":172,"t":6718,"event":"mousemove"},{"x":1263,"y":182,"t":6734,"event":"mousemove"},{"x":1256,"y":185,"t":6751,"event":"mousemove"},{"x":1253,"y":187,"t":6767,"event":"mousemove"},{"x":1253,"y":189,"t":6785,"event":"mousemove"}],"mouse_tracking_targets":{},"correct":true},{"rt":1252,"stimulus":"<p>How confident are you about your choice ? (click on the bar)</p>","slider_start":50,"response":94,"trial_type":"html-slider-response","trial_index":105,"time_elapsed":283235,"internal_node_id":"0.0-33.0-2.1"},{"rt":null,"stimulus":"\n        <div id='jspsych-image' style='position: relative; width: min(80vw, 80vh); height: min(80vw, 80vh);'>\n                \n                <div style='position: absolute; top: 40%; left: 30%; bottom: 40%; right: 30%;'><h1 style='font-size: 60px; color: green;'>Correct!</h1></div>\n                \n                <div class='jspsych-image' id='jspsych-image-0' data-choice='0' style='top: 0;     left: 0;'><img style=\"width: 100%; height: 100%;\" src='../static/human_exp_images/task_flip_contact_1/01_2.png' class=''></img></div>\n                <div class='jspsych-image' id='jspsych-image-1' data-choice='1' style='top: 0;     right: 0;'><img style=\"width: 100%; height: 100%;\" src='../static/human_exp_images/task_flip_contact_1/01_3.png' class='correct-choice'></img></div>\n                <div class='jspsych-image' id='jspsych-image-2' data-choice='2' style='bottom: 0;  left: 0;'><img style=\"width: 100%; height: 100%;\" src='../static/human_exp_images/task_flip_contact_1/01_0.png' class=''></img></div>\n                <div class='jspsych-image' id='jspsych-image-3' data-choice='3' style='bottom: 0;  right: 0;'><img style=\"width: 100%; height: 100%;\" src='../static/human_exp_images/task_flip_contact_1/01_1.png' class=''></img></div>\n\n        </div>","response":null,"trial_type":"html-keyboard-response","trial_index":106,"time_elapsed":284739,"internal_node_id":"0.0-33.0-3.1"},{"rt":null,"trial_type":"image-click","trial_index":107,"time_elapsed":285398,"internal_node_id":"0.0-33.0-0.2"},{"rt":5170,"response":3,"all_choices":["../static/human_exp_images/task_flip_contact_1/02_2.png","../static/human_exp_images/task_flip_contact_1/02_1.png","../static/human_exp_images/task_flip_contact_1/02_0.png","../static/human_exp_images/task_flip_contact_1/02_3.png"],"task":"response","correct_response":3,"shuffled_array":[2,1,0,3],"catch_trial":false,"trial_type":"image-click","trial_index":108,"time_elapsed":290571,"internal_node_id":"0.0-33.0-1.2","mouse_tracking_data":[{"x":1026,"y":451,"t":3,"event":"mousemove"},{"x":1000,"y":451,"t":13,"event":"mousemove"},{"x":983,"y":448,"t":30,"event":"mousemove"},{"x":976,"y":448,"t":46,"event":"mousemove"},{"x":967,"y":448,"t":63,"event":"mousemove"},{"x":964,"y":448,"t":79,"event":"mousemove"},{"x":964,"y":447,"t":186,"event":"mousemove"},{"x":964,"y":445,"t":268,"event":"mousemove"},{"x":964,"y":443,"t":286,"event":"mousemove"},{"x":964,"y":442,"t":322,"event":"mousemove"},{"x":965,"y":442,"t":387,"event":"mousemove"},{"x":967,"y":442,"t":396,"event":"mousemove"},{"x":969,"y":442,"t":423,"event":"mousemove"},{"x":971,"y":442,"t":440,"event":"mousemove"},{"x":972,"y":442,"t":458,"event":"mousemove"},{"x":974,"y":442,"t":476,"event":"mousemove"},{"x":976,"y":442,"t":487,"event":"mousemove"},{"x":977,"y":442,"t":513,"event":"mousemove"},{"x":979,"y":442,"t":531,"event":"mousemove"},{"x":981,"y":442,"t":549,"event":"mousemove"},{"x":983,"y":442,"t":575,"event":"mousemove"},{"x":984,"y":442,"t":603,"event":"mousemove"},{"x":986,"y":442,"t":749,"event":"mousemove"},{"x":988,"y":442,"t":784,"event":"mousemove"},{"x":989,"y":442,"t":1421,"event":"mousemove"},{"x":989,"y":440,"t":2408,"event":"mousemove"},{"x":991,"y":439,"t":4399,"event":"mousemove"},{"x":992,"y":439,"t":4672,"event":"mousemove"},{"x":994,"y":439,"t":4682,"event":"mousemove"},{"x":1004,"y":439,"t":4699,"event":"mousemove"},{"x":1011,"y":446,"t":4715,"event":"mousemove"},{"x":1020,"y":459,"t":4732,"event":"mousemove"},{"x":1027,"y":468,"t":4749,"event":"mousemove"},{"x":1035,"y":481,"t":4765,"event":"mousemove"},{"x":1042,"y":493,"t":4783,"event":"mousemove"},{"x":1047,"y":504,"t":4798,"event":"mousemove"},{"x":1054,"y":514,"t":4816,"event":"mousemove"},{"x":1061,"y":524,"t":4832,"event":"mousemove"},{"x":1068,"y":536,"t":4849,"event":"mousemove"},{"x":1071,"y":543,"t":4865,"event":"mousemove"},{"x":1076,"y":553,"t":4882,"event":"mousemove"},{"x":1079,"y":560,"t":4899,"event":"mousemove"},{"x":1085,"y":565,"t":4916,"event":"mousemove"},{"x":1088,"y":572,"t":4933,"event":"mousemove"},{"x":1090,"y":575,"t":4948,"event":"mousemove"},{"x":1093,"y":584,"t":4966,"event":"mousemove"},{"x":1098,"y":591,"t":4982,"event":"mousemove"},{"x":1102,"y":597,"t":4999,"event":"mousemove"},{"x":1105,"y":603,"t":5015,"event":"mousemove"},{"x":1108,"y":606,"t":5032,"event":"mousemove"},{"x":1110,"y":609,"t":5050,"event":"mousemove"},{"x":1112,"y":611,"t":5066,"event":"mousemove"},{"x":1112,"y":613,"t":5082,"event":"mousemove"}],"mouse_tracking_targets":{},"correct":true},{"rt":1131,"stimulus":"<p>How confident are you about your choice ? (click on the bar)</p>","slider_start":50,"response":94,"trial_type":"html-slider-response","trial_index":109,"time_elapsed":291704,"internal_node_id":"0.0-33.0-2.2"},{"rt":null,"stimulus":"\n        <div id='jspsych-image' style='position: relative; width: min(80vw, 80vh); height: min(80vw, 80vh);'>\n                \n                <div style='position: absolute; top: 40%; left: 30%; bottom: 40%; right: 30%;'><h1 style='font-size: 60px; color: green;'>Correct!</h1></div>\n                \n                <div class='jspsych-image' id='jspsych-image-0' data-choice='0' style='top: 0;     left: 0;'><img style=\"width: 100%; height: 100%;\" src='../static/human_exp_images/task_flip_contact_1/02_2.png' class=''></img></div>\n                <div class='jspsych-image' id='jspsych-image-1' data-choice='1' style='top: 0;     right: 0;'><img style=\"width: 100%; height: 100%;\" src='../static/human_exp_images/task_flip_contact_1/02_1.png' class=''></img></div>\n                <div class='jspsych-image' id='jspsych-image-2' data-choice='2' style='bottom: 0;  left: 0;'><img style=\"width: 100%; height: 100%;\" src='../static/human_exp_images/task_flip_contact_1/02_0.png' class=''></img></div>\n                <div class='jspsych-image' id='jspsych-image-3' data-choice='3' style='bottom: 0;  right: 0;'><img style=\"width: 100%; height: 100%;\" src='../static/human_exp_images/task_flip_contact_1/02_3.png' class='correct-choice'></img></div>\n\n        </div>","response":null,"trial_type":"html-keyboard-response","trial_index":110,"time_elapsed":293208,"internal_node_id":"0.0-33.0-3.2"},{"rt":1521,"response":{"Q0":""},"trial_type":"survey-text","trial_index":111,"time_elapsed":294734,"internal_node_id":"0.0-34.0"}]