[{"rt":737,"stimulus":"<p style='font-size: 40px'>Welcome to the experiment.</p><p style='font-size: 30px'>Press any key to begin.</p>","response":" ","trial_type":"html-keyboard-response","trial_index":0,"time_elapsed":738,"internal_node_id":"0.0-0.0"},{"rt":683,"stimulus":"\n    <p>This experiment aims to measure humans' visual reasoning skills. You will go through a practice session consisting of 3 trials, followed by 6 blocks of 21 trials.</p>\n    <p>When presented with an empty square in the middle of the screen, place your cursor on it to start the trial.</p>\n    <p>4 images will appear on the screen. 3 out of 4 images were generated with a certain rule while one image (the odd one out) does not respect this rule.</p>\n    <p>Select the odd one out by clicking on the image.</p>\n    <p>Following your choice, you will be asked to rate how confident you were about your choice on a scale from 0 to 100. Then, you will receive feedback on the trial.</p>\n    <p>The 21 trials of a block use the same rule and each block uses a different rule. At the end of each block, you will asked to describe the rule before starting a new block.</p>\n    <p>Please do not take breaks only in between blocks not in between trials.</p>\n    <p>The following 3 trials will allow you to get familiar with the odd-one-out task. The experiment starts after this practice session.</p>\n    \n    <p>Press any button to continue</p>\n    <div style='margin: auto; position: relative; width: 400px; height: 400px;'>\n        <div style='position: absolute; top: 0;     left: 0; '><img src='../static/img/square.png'></img></div>\n        <div style='position: absolute; top: 0;     right: 0;'><img src='../static/img/square.png'></img></div>\n        <div style='position: absolute; bottom: 0;  left: 0; '><img src='../static/img/square.png'></img></div>\n        <div style='position: absolute; bottom: 0;  right: 0;'><img src='../static/img/square.png'></img></div>\n    </div>\n","response":" ","trial_type":"html-keyboard-response","trial_index":1,"time_elapsed":1424,"internal_node_id":"0.0-1.0"},{"rt":2262,"response":{"Instruction Check":["The tasks consists of choosing one image that's different from the other three."]},"question_order":[0],"trial_type":"survey-multi-select","trial_index":2,"time_elapsed":5695,"internal_node_id":"0.0-2.0"},{"success":true,"timeout":false,"failed_images":[],"failed_audio":[],"failed_video":[],"trial_type":"preload","trial_index":3,"time_elapsed":5763,"internal_node_id":"0.0-3.0"},{"rt":null,"trial_type":"image-click","trial_index":4,"time_elapsed":6318,"internal_node_id":"0.0-4.0-0.0"},{"rt":679,"response":1,"all_choices":["../static/human_exp_images/practice_img/00_1.png","../static/human_exp_images/practice_img/00_3.png","../static/human_exp_images/practice_img/00_0.png","../static/human_exp_images/practice_img/00_2.png"],"task":"response","correct_response":1,"shuffled_array":[1,3,0,2],"catch_trial":false,"trial_type":"image-click","trial_index":5,"time_elapsed":7001,"internal_node_id":"0.0-4.0-1.0","mouse_tracking_data":[{"x":995,"y":534,"t":1,"event":"mousemove"},{"x":995,"y":503,"t":13,"event":"mousemove"},{"x":995,"y":493,"t":29,"event":"mousemove"},{"x":995,"y":488,"t":46,"event":"mousemove"},{"x":997,"y":487,"t":442,"event":"mousemove"},{"x":999,"y":482,"t":449,"event":"mousemove"},{"x":1006,"y":464,"t":463,"event":"mousemove"},{"x":1023,"y":426,"t":480,"event":"mousemove"},{"x":1048,"y":388,"t":496,"event":"mousemove"},{"x":1108,"y":325,"t":514,"event":"mousemove"},{"x":1129,"y":307,"t":530,"event":"mousemove"},{"x":1144,"y":299,"t":546,"event":"mousemove"},{"x":1155,"y":294,"t":564,"event":"mousemove"},{"x":1160,"y":294,"t":579,"event":"mousemove"},{"x":1160,"y":293,"t":597,"event":"mousemove"},{"x":1162,"y":293,"t":613,"event":"mousemove"}],"mouse_tracking_targets":{},"correct":true},{"rt":1463,"stimulus":"<p>How confident are you about your choice ? (click on the bar)</p>","slider_start":50,"response":96,"trial_type":"html-slider-response","trial_index":6,"time_elapsed":8467,"internal_node_id":"0.0-4.0-2.0"},{"rt":null,"stimulus":"\n        <div id='jspsych-image' style='position: relative; width: min(80vw, 80vh); height: min(80vw, 80vh);'>\n                \n                <div style='position: absolute; top: 40%; left: 30%; bottom: 40%; right: 30%;'><h1 style='font-size: 60px; color: green;'>Correct!</h1></div>\n                \n                <div class='jspsych-image' id='jspsych-image-0' data-choice='0' style='top: 0;     left: 0;'><img style=\"width: 100%; height: 100%;\" src='../static/human_exp_images/practice_img/00_1.png' class=''></img></div>\n                <div class='jspsych-image' id='jspsych-image-1' data-choice='1' style='top: 0;     right: 0;'><img style=\"width: 100%; height: 100%;\" src='../static/human_exp_images/practice_img/00_3.png' class='correct-choice'></img></div>\n                <div class='jspsych-image' id='jspsych-image-2' data-choice='2' style='bottom: 0;  left: 0;'><img style=\"width: 100%; height: 100%;\" src='../static/human_exp_images/practice_img/00_0.png' class=''></img></div>\n                <div class='jspsych-image' id='jspsych-image-3' data-choice='3' style='bottom: 0;  right: 0;'><img style=\"width: 100%; height: 100%;\" src='../static/human_exp_images/practice_img/00_2.png' class=''></img></div>\n\n        </div>","response":null,"trial_type":"html-keyboard-response","trial_index":7,"time_elapsed":9971,"internal_node_id":"0.0-4.0-3.0"},{"rt":null,"trial_type":"image-click","trial_index":8,"time_elapsed":10202,"internal_node_id":"0.0-4.0-0.1"},{"rt":4595,"response":1,"all_choices":["../static/human_exp_images/practice_img/01_1.png","../static/human_exp_images/practice_img/01_3.png","../static/human_exp_images/practice_img/01_2.png","../static/human_exp_images/practice_img/01_0.png"],"task":"response","correct_response":1,"shuffled_array":[1,3,2,0],"catch_trial":false,"trial_type":"image-click","trial_index":9,"time_elapsed":14799,"internal_node_id":"0.0-4.0-1.1","mouse_tracking_data":[{"x":1030,"y":531,"t":0,"event":"mousemove"},{"x":975,"y":531,"t":16,"event":"mousemove"},{"x":841,"y":522,"t":32,"event":"mousemove"},{"x":605,"y":418,"t":49,"event":"mousemove"},{"x":325,"y":312,"t":65,"event":"mousemove"},{"x":22,"y":214,"t":82,"event":"mousemove"},{"x":93,"y":247,"t":3785,"event":"mousemove"},{"x":246,"y":263,"t":3800,"event":"mousemove"},{"x":357,"y":274,"t":3818,"event":"mousemove"},{"x":512,"y":291,"t":3834,"event":"mousemove"},{"x":630,"y":301,"t":3851,"event":"mousemove"},{"x":701,"y":309,"t":3867,"event":"mousemove"},{"x":725,"y":309,"t":3884,"event":"mousemove"},{"x":737,"y":309,"t":3900,"event":"mousemove"},{"x":751,"y":309,"t":3918,"event":"mousemove"},{"x":762,"y":309,"t":3934,"event":"mousemove"},{"x":769,"y":309,"t":3951,"event":"mousemove"},{"x":769,"y":307,"t":4121,"event":"mousemove"},{"x":775,"y":307,"t":4157,"event":"mousemove"},{"x":799,"y":307,"t":4168,"event":"mousemove"},{"x":852,"y":307,"t":4185,"event":"mousemove"},{"x":904,"y":307,"t":4201,"event":"mousemove"},{"x":988,"y":307,"t":4219,"event":"mousemove"},{"x":1061,"y":307,"t":4234,"event":"mousemove"},{"x":1121,"y":307,"t":4252,"event":"mousemove"},{"x":1147,"y":307,"t":4267,"event":"mousemove"},{"x":1158,"y":307,"t":4285,"event":"mousemove"},{"x":1162,"y":307,"t":4300,"event":"mousemove"},{"x":1162,"y":305,"t":4485,"event":"mousemove"},{"x":1162,"y":304,"t":4502,"event":"mousemove"},{"x":1162,"y":302,"t":4518,"event":"mousemove"}],"mouse_tracking_targets":{},"correct":true},{"rt":1348,"stimulus":"<p>How confident are you about your choice ? (click on the bar)</p>","slider_start":50,"response":99,"trial_type":"html-slider-response","trial_index":10,"time_elapsed":16148,"internal_node_id":"0.0-4.0-2.1"},{"rt":null,"stimulus":"\n        <div id='jspsych-image' style='position: relative; width: min(80vw, 80vh); height: min(80vw, 80vh);'>\n                \n                <div style='position: absolute; top: 40%; left: 30%; bottom: 40%; right: 30%;'><h1 style='font-size: 60px; color: green;'>Correct!</h1></div>\n                \n                <div class='jspsych-image' id='jspsych-image-0' data-choice='0' style='top: 0;     left: 0;'><img style=\"width: 100%; height: 100%;\" src='../static/human_exp_images/practice_img/01_1.png' class=''></img></div>\n                <div class='jspsych-image' id='jspsych-image-1' data-choice='1' style='top: 0;     right: 0;'><img style=\"width: 100%; height: 100%;\" src='../static/human_exp_images/practice_img/01_3.png' class='correct-choice'></img></div>\n                <div class='jspsych-image' id='jspsych-image-2' data-choice='2' style='bottom: 0;  left: 0;'><img style=\"width: 100%; height: 100%;\" src='../static/human_exp_images/practice_img/01_2.png' class=''></img></div>\n                <div class='jspsych-image' id='jspsych-image-3' data-choice='3' style='bottom: 0;  right: 0;'><img style=\"width: 100%; height: 100%;\" src='../static/human_exp_images/practice_img/01_0.png' class=''></img></div>\n\n        </div>","response":null,"trial_type":"html-keyboard-response","trial_index":11,"time_elapsed":17651,"internal_node_id":"0.0-4.0-3.1"},{"rt":null,"trial_type":"image-click","trial_index":12,"time_elapsed":18258,"internal_node_id":"0.0-4.0-0.2"},{"rt":728,"response":1,"all_choices":["../static/human_exp_images/practice_img/02_1.png","../static/human_exp_images/practice_img/02_3.png","../static/human_exp_images/practice_img/02_2.png","../static/human_exp_images/practice_img/02_0.png"],"task":"response","correct_response":1,"shuffled_array":[1,3,2,0],"catch_trial":false,"trial_type":"image-click","trial_index":13,"time_elapsed":18988,"internal_node_id":"0.0-4.0-1.2","mouse_tracking_data":[{"x":1033,"y":447,"t":0,"event":"mousemove"},{"x":993,"y":447,"t":14,"event":"mousemove"},{"x":981,"y":447,"t":30,"event":"mousemove"},{"x":970,"y":447,"t":47,"event":"mousemove"},{"x":965,"y":447,"t":64,"event":"mousemove"},{"x":967,"y":447,"t":405,"event":"mousemove"},{"x":973,"y":445,"t":414,"event":"mousemove"},{"x":982,"y":442,"t":431,"event":"mousemove"},{"x":999,"y":430,"t":447,"event":"mousemove"},{"x":1021,"y":410,"t":464,"event":"mousemove"},{"x":1041,"y":394,"t":481,"event":"mousemove"},{"x":1057,"y":378,"t":497,"event":"mousemove"},{"x":1076,"y":363,"t":514,"event":"mousemove"},{"x":1098,"y":347,"t":531,"event":"mousemove"},{"x":1110,"y":341,"t":547,"event":"mousemove"},{"x":1132,"y":327,"t":565,"event":"mousemove"},{"x":1150,"y":317,"t":580,"event":"mousemove"},{"x":1162,"y":309,"t":597,"event":"mousemove"},{"x":1169,"y":303,"t":613,"event":"mousemove"},{"x":1173,"y":300,"t":631,"event":"mousemove"},{"x":1174,"y":300,"t":648,"event":"mousemove"}],"mouse_tracking_targets":{},"correct":true},{"rt":1808,"stimulus":"<p>How confident are you about your choice ? (click on the bar)</p>","slider_start":50,"response":100,"trial_type":"html-slider-response","trial_index":14,"time_elapsed":20799,"internal_node_id":"0.0-4.0-2.2"},{"rt":null,"stimulus":"\n        <div id='jspsych-image' style='position: relative; width: min(80vw, 80vh); height: min(80vw, 80vh);'>\n                \n                <div style='position: absolute; top: 40%; left: 30%; bottom: 40%; right: 30%;'><h1 style='font-size: 60px; color: green;'>Correct!</h1></div>\n                \n                <div class='jspsych-image' id='jspsych-image-0' data-choice='0' style='top: 0;     left: 0;'><img style=\"width: 100%; height: 100%;\" src='../static/human_exp_images/practice_img/02_1.png' class=''></img></div>\n                <div class='jspsych-image' id='jspsych-image-1' data-choice='1' style='top: 0;     right: 0;'><img style=\"width: 100%; height: 100%;\" src='../static/human_exp_images/practice_img/02_3.png' class='correct-choice'></img></div>\n                <div class='jspsych-image' id='jspsych-image-2' data-choice='2' style='bottom: 0;  left: 0;'><img style=\"width: 100%; height: 100%;\" src='../static/human_exp_images/practice_img/02_2.png' class=''></img></div>\n                <div class='jspsych-image' id='jspsych-image-3' data-choice='3' style='bottom: 0;  right: 0;'><img style=\"width: 100%; height: 100%;\" src='../static/human_exp_images/practice_img/02_0.png' class=''></img></div>\n\n        </div>","response":null,"trial_type":"html-keyboard-response","trial_index":15,"time_elapsed":22303,"internal_node_id":"0.0-4.0-3.2"},{"rt":2872,"stimulus":"<p style='font-size: 40px'>The practice session is over. The experiment begin now!</p> \n                <p>Please take pauses on only at the \"new rule\" pages.</p> \n                <p>Press any key to begin.</p>","response":" ","trial_type":"html-keyboard-response","trial_index":16,"time_elapsed":25181,"internal_node_id":"0.0-5.0"},{"success":true,"timeout":false,"failed_images":[],"failed_audio":[],"failed_video":[],"trial_type":"preload","trial_index":17,"time_elapsed":25220,"internal_node_id":"0.0-6.0"},{"rt":1484,"stimulus":"<h1 style='font-size: 60px'>New Rule!</h1> <p>Press any key to begin.</p>","response":" ","trial_type":"html-keyboard-response","trial_index":18,"time_elapsed":26703,"internal_node_id":"0.0-7.0"},{"rt":null,"trial_type":"image-click","trial_index":19,"time_elapsed":27179,"internal_node_id":"0.0-8.0-0.0"},{"rt":598,"response":1,"all_choices":["../static/human_exp_images/task_color/00_1.png","../static/human_exp_images/task_color/00_0.png","../static/human_exp_images/task_color/00_2.png","../static/human_exp_images/task_color/00_3.png"],"task":"response","correct_response":3,"shuffled_array":[1,0,2,3],"catch_trial":false,"trial_type":"image-click","trial_index":20,"time_elapsed":27779,"internal_node_id":"0.0-8.0-1.0","mouse_tracking_data":[{"x":1025,"y":462,"t":1,"event":"mousemove"},{"x":984,"y":456,"t":30,"event":"mousemove"},{"x":967,"y":456,"t":48,"event":"mousemove"},{"x":962,"y":456,"t":63,"event":"mousemove"},{"x":960,"y":456,"t":81,"event":"mousemove"},{"x":962,"y":456,"t":262,"event":"mousemove"},{"x":966,"y":456,"t":271,"event":"mousemove"},{"x":967,"y":456,"t":281,"event":"mousemove"},{"x":974,"y":456,"t":298,"event":"mousemove"},{"x":979,"y":456,"t":315,"event":"mousemove"},{"x":991,"y":456,"t":332,"event":"mousemove"},{"x":1008,"y":456,"t":347,"event":"mousemove"},{"x":1027,"y":451,"t":365,"event":"mousemove"},{"x":1059,"y":423,"t":380,"event":"mousemove"},{"x":1104,"y":378,"t":398,"event":"mousemove"},{"x":1134,"y":350,"t":413,"event":"mousemove"},{"x":1164,"y":320,"t":432,"event":"mousemove"},{"x":1188,"y":299,"t":448,"event":"mousemove"},{"x":1196,"y":287,"t":464,"event":"mousemove"},{"x":1200,"y":285,"t":481,"event":"mousemove"},{"x":1203,"y":284,"t":497,"event":"mousemove"},{"x":1203,"y":282,"t":515,"event":"mousemove"}],"mouse_tracking_targets":{},"correct":false},{"rt":1258,"stimulus":"<p>How confident are you about your choice ? (click on the bar)</p>","slider_start":50,"response":69,"trial_type":"html-slider-response","trial_index":21,"time_elapsed":29038,"internal_node_id":"0.0-8.0-2.0"},{"rt":null,"stimulus":"\n        <div id='jspsych-image' style='position: relative; width: min(80vw, 80vh); height: min(80vw, 80vh);'>\n                \n                <div style='position: absolute; top: 40%; left: 30%; bottom: 40%; right: 30%;'><h1 style='font-size: 60px; color: red'>Wrong</h1></div>\n                \n                <div class='jspsych-image' id='jspsych-image-0' data-choice='0' style='top: 0;     left: 0;'><img style=\"width: 100%; height: 100%;\" src='../static/human_exp_images/task_color/00_1.png' class=''></img></div>\n                <div class='jspsych-image' id='jspsych-image-1' data-choice='1' style='top: 0;     right: 0;'><img style=\"width: 100%; height: 100%;\" src='../static/human_exp_images/task_color/00_0.png' class='wrong-choice'></img></div>\n                <div class='jspsych-image' id='jspsych-image-2' data-choice='2' style='bottom: 0;  left: 0;'><img style=\"width: 100%; height: 100%;\" src='../static/human_exp_images/task_color/00_2.png' class=''></img></div>\n                <div class='jspsych-image' id='jspsych-image-3' data-choice='3' style='bottom: 0;  right: 0;'><img style=\"width: 100%; height: 100%;\" src='../static/human_exp_images/task_color/00_3.png' class='correct-choice'></img></div>\n\n        </div>","response":null,"trial_type":"html-keyboard-response","trial_index":22,"time_elapsed":31542,"internal_node_id":"0.0-8.0-3.0"},{"rt":null,"trial_type":"image-click","trial_index":23,"time_elapsed":31543,"internal_node_id":"0.0-8.0-0.1"},{"rt":951,"response":1,"all_choices":["../static/human_exp_images/task_color/01_1.png","../static/human_exp_images/task_color/01_3.png","../static/human_exp_images/task_color/01_2.png","../static/human_exp_images/task_color/01_0.png"],"task":"response","correct_response":1,"shuffled_array":[1,3,2,0],"catch_trial":false,"trial_type":"image-click","trial_index":24,"time_elapsed":32496,"internal_node_id":"0.0-8.0-1.1","mouse_tracking_data":[{"x":972,"y":460,"t":68,"event":"mousemove"},{"x":972,"y":458,"t":86,"event":"mousemove"},{"x":972,"y":456,"t":105,"event":"mousemove"},{"x":975,"y":455,"t":716,"event":"mousemove"},{"x":977,"y":455,"t":719,"event":"mousemove"},{"x":1001,"y":432,"t":735,"event":"mousemove"},{"x":1058,"y":387,"t":752,"event":"mousemove"},{"x":1106,"y":352,"t":769,"event":"mousemove"},{"x":1146,"y":322,"t":786,"event":"mousemove"},{"x":1208,"y":260,"t":802,"event":"mousemove"},{"x":1270,"y":202,"t":819,"event":"mousemove"},{"x":1308,"y":170,"t":837,"event":"mousemove"},{"x":1320,"y":163,"t":853,"event":"mousemove"},{"x":1322,"y":163,"t":870,"event":"mousemove"}],"mouse_tracking_targets":{},"correct":true},{"rt":1033,"stimulus":"<p>How confident are you about your choice ? (click on the bar)</p>","slider_start":50,"response":90,"trial_type":"html-slider-response","trial_index":25,"time_elapsed":33532,"internal_node_id":"0.0-8.0-2.1"},{"rt":null,"stimulus":"\n        <div id='jspsych-image' style='position: relative; width: min(80vw, 80vh); height: min(80vw, 80vh);'>\n                \n                <div style='position: absolute; top: 40%; left: 30%; bottom: 40%; right: 30%;'><h1 style='font-size: 60px; color: green;'>Correct!</h1></div>\n                \n                <div class='jspsych-image' id='jspsych-image-0' data-choice='0' style='top: 0;     left: 0;'><img style=\"width: 100%; height: 100%;\" src='../static/human_exp_images/task_color/01_1.png' class=''></img></div>\n                <div class='jspsych-image' id='jspsych-image-1' data-choice='1' style='top: 0;     right: 0;'><img style=\"width: 100%; height: 100%;\" src='../static/human_exp_images/task_color/01_3.png' class='correct-choice'></img></div>\n                <div class='jspsych-image' id='jspsych-image-2' data-choice='2' style='bottom: 0;  left: 0;'><img style=\"width: 100%; height: 100%;\" src='../static/human_exp_images/task_color/01_2.png' class=''></img></div>\n                <div class='jspsych-image' id='jspsych-image-3' data-choice='3' style='bottom: 0;  right: 0;'><img style=\"width: 100%; height: 100%;\" src='../static/human_exp_images/task_color/01_0.png' class=''></img></div>\n\n        </div>","response":null,"trial_type":"html-keyboard-response","trial_index":26,"time_elapsed":35036,"internal_node_id":"0.0-8.0-3.1"},{"rt":null,"trial_type":"image-click","trial_index":27,"time_elapsed":35038,"internal_node_id":"0.0-8.0-0.2"},{"rt":853,"response":1,"all_choices":["../static/human_exp_images/task_color/02_0.png","../static/human_exp_images/task_color/02_3.png","../static/human_exp_images/task_color/02_2.png","../static/human_exp_images/task_color/02_1.png"],"task":"response","correct_response":1,"shuffled_array":[0,3,2,1],"catch_trial":false,"trial_type":"image-click","trial_index":28,"time_elapsed":35894,"internal_node_id":"0.0-8.0-1.2","mouse_tracking_data":[{"x":958,"y":475,"t":420,"event":"mousemove"},{"x":963,"y":472,"t":430,"event":"mousemove"},{"x":970,"y":459,"t":442,"event":"mousemove"},{"x":987,"y":436,"t":460,"event":"mousemove"},{"x":1011,"y":413,"t":475,"event":"mousemove"},{"x":1031,"y":396,"t":493,"event":"mousemove"},{"x":1045,"y":385,"t":509,"event":"mousemove"},{"x":1061,"y":373,"t":526,"event":"mousemove"},{"x":1074,"y":360,"t":543,"event":"mousemove"},{"x":1094,"y":341,"t":560,"event":"mousemove"},{"x":1121,"y":318,"t":576,"event":"mousemove"},{"x":1157,"y":282,"t":593,"event":"mousemove"},{"x":1170,"y":271,"t":609,"event":"mousemove"},{"x":1195,"y":254,"t":626,"event":"mousemove"},{"x":1203,"y":248,"t":643,"event":"mousemove"},{"x":1205,"y":248,"t":659,"event":"mousemove"}],"mouse_tracking_targets":{},"correct":true},{"rt":879,"stimulus":"<p>How confident are you about your choice ? (click on the bar)</p>","slider_start":50,"response":93,"trial_type":"html-slider-response","trial_index":29,"time_elapsed":36774,"internal_node_id":"0.0-8.0-2.2"},{"rt":null,"stimulus":"\n        <div id='jspsych-image' style='position: relative; width: min(80vw, 80vh); height: min(80vw, 80vh);'>\n                \n                <div style='position: absolute; top: 40%; left: 30%; bottom: 40%; right: 30%;'><h1 style='font-size: 60px; color: green;'>Correct!</h1></div>\n                \n                <div class='jspsych-image' id='jspsych-image-0' data-choice='0' style='top: 0;     left: 0;'><img style=\"width: 100%; height: 100%;\" src='../static/human_exp_images/task_color/02_0.png' class=''></img></div>\n                <div class='jspsych-image' id='jspsych-image-1' data-choice='1' style='top: 0;     right: 0;'><img style=\"width: 100%; height: 100%;\" src='../static/human_exp_images/task_color/02_3.png' class='correct-choice'></img></div>\n                <div class='jspsych-image' id='jspsych-image-2' data-choice='2' style='bottom: 0;  left: 0;'><img style=\"width: 100%; height: 100%;\" src='../static/human_exp_images/task_color/02_2.png' class=''></img></div>\n                <div class='jspsych-image' id='jspsych-image-3' data-choice='3' style='bottom: 0;  right: 0;'><img style=\"width: 100%; height: 100%;\" src='../static/human_exp_images/task_color/02_1.png' class=''></img></div>\n\n        </div>","response":null,"trial_type":"html-keyboard-response","trial_index":30,"time_elapsed":38277,"internal_node_id":"0.0-8.0-3.2"},{"rt":2710,"response":{"Q0":"kkk"},"trial_type":"survey-text","trial_index":31,"time_elapsed":41006,"internal_node_id":"0.0-9.0"},{"rt":null,"stimulus":"<h1 style='font-size: 60px'>Block End</h1>","response":null,"trial_type":"html-keyboard-response","trial_index":32,"time_elapsed":41511,"internal_node_id":"0.0-10.0"},{"success":true,"timeout":false,"failed_images":[],"failed_audio":[],"failed_video":[],"trial_type":"preload","trial_index":33,"time_elapsed":41609,"internal_node_id":"0.0-11.0"},{"rt":8778,"stimulus":"<h1 style='font-size: 60px'>New Rule!</h1> <p>Press any key to begin.</p>","response":" ","trial_type":"html-keyboard-response","trial_index":34,"time_elapsed":50387,"internal_node_id":"0.0-12.0"},{"rt":null,"trial_type":"image-click","trial_index":35,"time_elapsed":51141,"internal_node_id":"0.0-13.0-0.0"},{"rt":2167,"response":3,"all_choices":["../static/human_exp_images/task_inside/00_0.png","../static/human_exp_images/task_inside/00_2.png","../static/human_exp_images/task_inside/00_1.png","../static/human_exp_images/task_inside/00_3.png"],"task":"response","correct_response":3,"shuffled_array":[0,2,1,3],"catch_trial":false,"trial_type":"image-click","trial_index":36,"time_elapsed":53312,"internal_node_id":"0.0-13.0-1.0","mouse_tracking_data":[{"x":979,"y":529,"t":1,"event":"mousemove"},{"x":957,"y":498,"t":14,"event":"mousemove"},{"x":950,"y":484,"t":31,"event":"mousemove"},{"x":944,"y":475,"t":47,"event":"mousemove"},{"x":941,"y":472,"t":64,"event":"mousemove"},{"x":937,"y":470,"t":81,"event":"mousemove"},{"x":936,"y":470,"t":127,"event":"mousemove"},{"x":934,"y":470,"t":146,"event":"mousemove"},{"x":935,"y":470,"t":1268,"event":"mousemove"},{"x":939,"y":470,"t":1280,"event":"mousemove"},{"x":944,"y":470,"t":1298,"event":"mousemove"},{"x":947,"y":470,"t":1314,"event":"mousemove"},{"x":951,"y":474,"t":1331,"event":"mousemove"},{"x":954,"y":475,"t":1347,"event":"mousemove"},{"x":958,"y":475,"t":1364,"event":"mousemove"},{"x":961,"y":477,"t":1380,"event":"mousemove"},{"x":964,"y":479,"t":1397,"event":"mousemove"},{"x":968,"y":481,"t":1414,"event":"mousemove"},{"x":970,"y":481,"t":1430,"event":"mousemove"},{"x":971,"y":482,"t":1447,"event":"mousemove"},{"x":975,"y":484,"t":1464,"event":"mousemove"},{"x":976,"y":486,"t":1481,"event":"mousemove"},{"x":978,"y":487,"t":1497,"event":"mousemove"},{"x":982,"y":489,"t":1515,"event":"mousemove"},{"x":983,"y":489,"t":1532,"event":"mousemove"},{"x":987,"y":491,"t":1547,"event":"mousemove"},{"x":988,"y":493,"t":1565,"event":"mousemove"},{"x":990,"y":494,"t":1580,"event":"mousemove"},{"x":992,"y":496,"t":1598,"event":"mousemove"},{"x":993,"y":498,"t":1624,"event":"mousemove"},{"x":995,"y":498,"t":1638,"event":"mousemove"},{"x":997,"y":501,"t":1648,"event":"mousemove"},{"x":1005,"y":505,"t":1665,"event":"mousemove"},{"x":1014,"y":510,"t":1681,"event":"mousemove"},{"x":1028,"y":515,"t":1698,"event":"mousemove"},{"x":1034,"y":520,"t":1714,"event":"mousemove"},{"x":1052,"y":530,"t":1731,"event":"mousemove"},{"x":1068,"y":541,"t":1748,"event":"mousemove"},{"x":1083,"y":553,"t":1765,"event":"mousemove"},{"x":1096,"y":564,"t":1781,"event":"mousemove"},{"x":1106,"y":574,"t":1798,"event":"mousemove"},{"x":1118,"y":584,"t":1815,"event":"mousemove"},{"x":1125,"y":589,"t":1831,"event":"mousemove"},{"x":1137,"y":600,"t":1849,"event":"mousemove"},{"x":1145,"y":607,"t":1864,"event":"mousemove"},{"x":1150,"y":612,"t":1882,"event":"mousemove"},{"x":1154,"y":615,"t":1898,"event":"mousemove"},{"x":1156,"y":617,"t":1915,"event":"mousemove"}],"mouse_tracking_targets":{},"correct":true},{"rt":860,"stimulus":"<p>How confident are you about your choice ? (click on the bar)</p>","slider_start":50,"response":81,"trial_type":"html-slider-response","trial_index":37,"time_elapsed":54174,"internal_node_id":"0.0-13.0-2.0"},{"rt":null,"stimulus":"\n        <div id='jspsych-image' style='position: relative; width: min(80vw, 80vh); height: min(80vw, 80vh);'>\n                \n                <div style='position: absolute; top: 40%; left: 30%; bottom: 40%; right: 30%;'><h1 style='font-size: 60px; color: green;'>Correct!</h1></div>\n                \n                <div class='jspsych-image' id='jspsych-image-0' data-choice='0' style='top: 0;     left: 0;'><img style=\"width: 100%; height: 100%;\" src='../static/human_exp_images/task_inside/00_0.png' class=''></img></div>\n                <div class='jspsych-image' id='jspsych-image-1' data-choice='1' style='top: 0;     right: 0;'><img style=\"width: 100%; height: 100%;\" src='../static/human_exp_images/task_inside/00_2.png' class=''></img></div>\n                <div class='jspsych-image' id='jspsych-image-2' data-choice='2' style='bottom: 0;  left: 0;'><img style=\"width: 100%; height: 100%;\" src='../static/human_exp_images/task_inside/00_1.png' class=''></img></div>\n                <div class='jspsych-image' id='jspsych-image-3' data-choice='3' style='bottom: 0;  right: 0;'><img style=\"width: 100%; height: 100%;\" src='../static/human_exp_images/task_inside/00_3.png' class='correct-choice'></img></div>\n\n        </div>","response":null,"trial_type":"html-keyboard-response","trial_index":38,"time_elapsed":55674,"internal_node_id":"0.0-13.0-3.0"},{"rt":null,"trial_type":"image-click","trial_index":39,"time_elapsed":56028,"internal_node_id":"0.0-13.0-0.1"},{"rt":1457,"response":2,"all_choices":["../static/human_exp_images/task_inside/01_2.png","../static/human_exp_images/task_inside/01_0.png","../static/human_exp_images/task_inside/01_3.png","../static/human_exp_images/task_inside/01_1.png"],"task":"response","correct_response":2,"shuffled_array":[2,0,3,1],"catch_trial":false,"trial_type":"image-click","trial_index":40,"time_elapsed":57485,"internal_node_id":"0.0-13.0-1.1","mouse_tracking_data":[{"x":1048,"y":490,"t":1,"event":"mousemove"},{"x":1038,"y":490,"t":14,"event":"mousemove"},{"x":1024,"y":490,"t":31,"event":"mousemove"},{"x":1014,"y":490,"t":48,"event":"mousemove"},{"x":1000,"y":490,"t":65,"event":"mousemove"},{"x":993,"y":490,"t":82,"event":"mousemove"},{"x":986,"y":489,"t":98,"event":"mousemove"},{"x":981,"y":489,"t":114,"event":"mousemove"},{"x":979,"y":489,"t":131,"event":"mousemove"},{"x":977,"y":489,"t":148,"event":"mousemove"},{"x":982,"y":489,"t":393,"event":"mousemove"},{"x":984,"y":489,"t":398,"event":"mousemove"},{"x":1012,"y":503,"t":414,"event":"mousemove"},{"x":1042,"y":528,"t":432,"event":"mousemove"},{"x":1067,"y":543,"t":448,"event":"mousemove"},{"x":1078,"y":552,"t":465,"event":"mousemove"},{"x":1094,"y":564,"t":482,"event":"mousemove"},{"x":1106,"y":575,"t":499,"event":"mousemove"},{"x":1117,"y":583,"t":515,"event":"mousemove"},{"x":1127,"y":595,"t":531,"event":"mousemove"},{"x":1134,"y":602,"t":548,"event":"mousemove"},{"x":1141,"y":607,"t":565,"event":"mousemove"},{"x":1149,"y":613,"t":581,"event":"mousemove"},{"x":1154,"y":618,"t":598,"event":"mousemove"},{"x":1158,"y":619,"t":615,"event":"mousemove"},{"x":1159,"y":621,"t":632,"event":"mousemove"},{"x":1161,"y":623,"t":648,"event":"mousemove"},{"x":1159,"y":623,"t":1079,"event":"mousemove"},{"x":1149,"y":623,"t":1082,"event":"mousemove"},{"x":1111,"y":629,"t":1099,"event":"mousemove"},{"x":1047,"y":638,"t":1116,"event":"mousemove"},{"x":962,"y":659,"t":1133,"event":"mousemove"},{"x":883,"y":685,"t":1148,"event":"mousemove"},{"x":814,"y":707,"t":1166,"event":"mousemove"},{"x":761,"y":725,"t":1182,"event":"mousemove"},{"x":736,"y":734,"t":1199,"event":"mousemove"},{"x":710,"y":745,"t":1215,"event":"mousemove"},{"x":694,"y":751,"t":1232,"event":"mousemove"},{"x":684,"y":754,"t":1248,"event":"mousemove"},{"x":672,"y":757,"t":1265,"event":"mousemove"},{"x":666,"y":757,"t":1282,"event":"mousemove"},{"x":663,"y":757,"t":1316,"event":"mousemove"}],"mouse_tracking_targets":{},"correct":true},{"rt":1264,"stimulus":"<p>How confident are you about your choice ? (click on the bar)</p>","slider_start":50,"response":91,"trial_type":"html-slider-response","trial_index":41,"time_elapsed":58752,"internal_node_id":"0.0-13.0-2.1"},{"rt":null,"stimulus":"\n        <div id='jspsych-image' style='position: relative; width: min(80vw, 80vh); height: min(80vw, 80vh);'>\n                \n                <div style='position: absolute; top: 40%; left: 30%; bottom: 40%; right: 30%;'><h1 style='font-size: 60px; color: green;'>Correct!</h1></div>\n                \n                <div class='jspsych-image' id='jspsych-image-0' data-choice='0' style='top: 0;     left: 0;'><img style=\"width: 100%; height: 100%;\" src='../static/human_exp_images/task_inside/01_2.png' class=''></img></div>\n                <div class='jspsych-image' id='jspsych-image-1' data-choice='1' style='top: 0;     right: 0;'><img style=\"width: 100%; height: 100%;\" src='../static/human_exp_images/task_inside/01_0.png' class=''></img></div>\n                <div class='jspsych-image' id='jspsych-image-2' data-choice='2' style='bottom: 0;  left: 0;'><img style=\"width: 100%; height: 100%;\" src='../static/human_exp_images/task_inside/01_3.png' class='correct-choice'></img></div>\n                <div class='jspsych-image' id='jspsych-image-3' data-choice='3' style='bottom: 0;  right: 0;'><img style=\"width: 100%; height: 100%;\" src='../static/human_exp_images/task_inside/01_1.png' class=''></img></div>\n\n        </div>","response":null,"trial_type":"html-keyboard-response","trial_index":42,"time_elapsed":60255,"internal_node_id":"0.0-13.0-3.1"},{"rt":null,"trial_type":"image-click","trial_index":43,"time_elapsed":60595,"internal_node_id":"0.0-13.0-0.2"},{"rt":2587,"response":0,"all_choices":["../static/human_exp_images/task_inside/02_3.png","../static/human_exp_images/task_inside/02_2.png","../static/human_exp_images/task_inside/02_0.png","../static/human_exp_images/task_inside/02_1.png"],"task":"response","correct_response":0,"shuffled_array":[3,2,0,1],"catch_trial":false,"trial_type":"image-click","trial_index":44,"time_elapsed":63184,"internal_node_id":"0.0-13.0-1.2","mouse_tracking_data":[{"x":1040,"y":472,"t":1,"event":"mousemove"},{"x":1028,"y":472,"t":16,"event":"mousemove"},{"x":1010,"y":472,"t":32,"event":"mousemove"},{"x":996,"y":472,"t":50,"event":"mousemove"},{"x":982,"y":472,"t":66,"event":"mousemove"},{"x":975,"y":472,"t":83,"event":"mousemove"},{"x":972,"y":472,"t":100,"event":"mousemove"},{"x":967,"y":472,"t":117,"event":"mousemove"},{"x":965,"y":472,"t":134,"event":"mousemove"},{"x":965,"y":470,"t":1124,"event":"mousemove"},{"x":967,"y":470,"t":1307,"event":"mousemove"},{"x":969,"y":470,"t":1317,"event":"mousemove"},{"x":970,"y":470,"t":1335,"event":"mousemove"},{"x":974,"y":470,"t":1351,"event":"mousemove"},{"x":977,"y":470,"t":1368,"event":"mousemove"},{"x":984,"y":470,"t":1383,"event":"mousemove"},{"x":991,"y":470,"t":1401,"event":"mousemove"},{"x":998,"y":470,"t":1418,"event":"mousemove"},{"x":1006,"y":474,"t":1434,"event":"mousemove"},{"x":1011,"y":477,"t":1451,"event":"mousemove"},{"x":1016,"y":482,"t":1467,"event":"mousemove"},{"x":1022,"y":486,"t":1484,"event":"mousemove"},{"x":1025,"y":488,"t":1500,"event":"mousemove"},{"x":1027,"y":489,"t":1517,"event":"mousemove"},{"x":1030,"y":491,"t":1533,"event":"mousemove"},{"x":1030,"y":493,"t":1551,"event":"mousemove"},{"x":1032,"y":494,"t":1570,"event":"mousemove"},{"x":1033,"y":496,"t":1584,"event":"mousemove"},{"x":1035,"y":496,"t":1600,"event":"mousemove"},{"x":1037,"y":500,"t":1616,"event":"mousemove"},{"x":1042,"y":505,"t":1633,"event":"mousemove"},{"x":1049,"y":510,"t":1651,"event":"mousemove"},{"x":1054,"y":513,"t":1668,"event":"mousemove"},{"x":1064,"y":522,"t":1684,"event":"mousemove"},{"x":1074,"y":532,"t":1700,"event":"mousemove"},{"x":1085,"y":540,"t":1717,"event":"mousemove"},{"x":1095,"y":551,"t":1734,"event":"mousemove"},{"x":1109,"y":563,"t":1751,"event":"mousemove"},{"x":1117,"y":571,"t":1767,"event":"mousemove"},{"x":1127,"y":580,"t":1784,"event":"mousemove"},{"x":1136,"y":588,"t":1801,"event":"mousemove"},{"x":1141,"y":592,"t":1817,"event":"mousemove"},{"x":1145,"y":597,"t":1834,"event":"mousemove"},{"x":1143,"y":597,"t":2033,"event":"mousemove"},{"x":1136,"y":597,"t":2040,"event":"mousemove"},{"x":1119,"y":597,"t":2051,"event":"mousemove"},{"x":1087,"y":597,"t":2067,"event":"mousemove"},{"x":1062,"y":597,"t":2085,"event":"mousemove"},{"x":1021,"y":597,"t":2101,"event":"mousemove"},{"x":990,"y":597,"t":2118,"event":"mousemove"},{"x":950,"y":597,"t":2135,"event":"mousemove"},{"x":927,"y":597,"t":2151,"event":"mousemove"},{"x":896,"y":597,"t":2168,"event":"mousemove"},{"x":880,"y":597,"t":2184,"event":"mousemove"},{"x":871,"y":597,"t":2201,"event":"mousemove"},{"x":859,"y":597,"t":2218,"event":"mousemove"},{"x":850,"y":595,"t":2235,"event":"mousemove"},{"x":841,"y":577,"t":2251,"event":"mousemove"},{"x":832,"y":553,"t":2268,"event":"mousemove"},{"x":826,"y":530,"t":2284,"event":"mousemove"},{"x":819,"y":475,"t":2301,"event":"mousemove"},{"x":816,"y":405,"t":2317,"event":"mousemove"},{"x":816,"y":358,"t":2334,"event":"mousemove"},{"x":816,"y":296,"t":2351,"event":"mousemove"},{"x":816,"y":257,"t":2368,"event":"mousemove"},{"x":814,"y":233,"t":2384,"event":"mousemove"},{"x":810,"y":199,"t":2402,"event":"mousemove"},{"x":804,"y":183,"t":2419,"event":"mousemove"},{"x":801,"y":174,"t":2434,"event":"mousemove"},{"x":797,"y":171,"t":2452,"event":"mousemove"},{"x":795,"y":171,"t":2468,"event":"mousemove"}],"mouse_tracking_targets":{},"correct":true},{"rt":896,"stimulus":"<p>How confident are you about your choice ? (click on the bar)</p>","slider_start":50,"response":98,"trial_type":"html-slider-response","trial_index":45,"time_elapsed":64082,"internal_node_id":"0.0-13.0-2.2"},{"rt":null,"stimulus":"\n        <div id='jspsych-image' style='position: relative; width: min(80vw, 80vh); height: min(80vw, 80vh);'>\n                \n                <div style='position: absolute; top: 40%; left: 30%; bottom: 40%; right: 30%;'><h1 style='font-size: 60px; color: green;'>Correct!</h1></div>\n                \n                <div class='jspsych-image' id='jspsych-image-0' data-choice='0' style='top: 0;     left: 0;'><img style=\"width: 100%; height: 100%;\" src='../static/human_exp_images/task_inside/02_3.png' class='correct-choice'></img></div>\n                <div class='jspsych-image' id='jspsych-image-1' data-choice='1' style='top: 0;     right: 0;'><img style=\"width: 100%; height: 100%;\" src='../static/human_exp_images/task_inside/02_2.png' class=''></img></div>\n                <div class='jspsych-image' id='jspsych-image-2' data-choice='2' style='bottom: 0;  left: 0;'><img style=\"width: 100%; height: 100%;\" src='../static/human_exp_images/task_inside/02_0.png' class=''></img></div>\n                <div class='jspsych-image' id='jspsych-image-3' data-choice='3' style='bottom: 0;  right: 0;'><img style=\"width: 100%; height: 100%;\" src='../static/human_exp_images/task_inside/02_1.png' class=''></img></div>\n\n        </div>","response":null,"trial_type":"html-keyboard-response","trial_index":46,"time_elapsed":65585,"internal_node_id":"0.0-13.0-3.2"},{"rt":3220,"response":{"Q0":"nnkn"},"trial_type":"survey-text","trial_index":47,"time_elapsed":68810,"internal_node_id":"0.0-14.0"},{"rt":null,"stimulus":"<h1 style='font-size: 60px'>Block End</h1>","response":null,"trial_type":"html-keyboard-response","trial_index":48,"time_elapsed":69320,"internal_node_id":"0.0-15.0"},{"success":true,"timeout":false,"failed_images":[],"failed_audio":[],"failed_video":[],"trial_type":"preload","trial_index":49,"time_elapsed":69754,"internal_node_id":"0.0-16.0"},{"rt":4920,"stimulus":"<h1 style='font-size: 60px'>New Rule!</h1> <p>Press any key to begin.</p>","response":" ","trial_type":"html-keyboard-response","trial_index":50,"time_elapsed":74678,"internal_node_id":"0.0-17.0"},{"rt":null,"trial_type":"image-click","trial_index":51,"time_elapsed":75337,"internal_node_id":"0.0-18.0-0.0"},{"rt":4190,"response":2,"all_choices":["../static/human_exp_images/task_color_inside_1/00_0.png","../static/human_exp_images/task_color_inside_1/00_2.png","../static/human_exp_images/task_color_inside_1/00_3.png","../static/human_exp_images/task_color_inside_1/00_1.png"],"task":"response","correct_response":2,"shuffled_array":[0,2,3,1],"catch_trial":false,"trial_type":"image-click","trial_index":52,"time_elapsed":79532,"internal_node_id":"0.0-18.0-1.0","mouse_tracking_data":[{"x":885,"y":479,"t":2,"event":"mousemove"},{"x":895,"y":476,"t":13,"event":"mousemove"},{"x":907,"y":476,"t":30,"event":"mousemove"},{"x":911,"y":474,"t":46,"event":"mousemove"},{"x":916,"y":474,"t":63,"event":"mousemove"},{"x":921,"y":474,"t":79,"event":"mousemove"},{"x":924,"y":474,"t":96,"event":"mousemove"},{"x":926,"y":474,"t":120,"event":"mousemove"},{"x":928,"y":474,"t":218,"event":"mousemove"},{"x":930,"y":474,"t":230,"event":"mousemove"},{"x":930,"y":472,"t":485,"event":"mousemove"},{"x":930,"y":470,"t":549,"event":"mousemove"},{"x":930,"y":469,"t":1097,"event":"mousemove"},{"x":930,"y":470,"t":2898,"event":"mousemove"},{"x":924,"y":479,"t":2914,"event":"mousemove"},{"x":918,"y":484,"t":2930,"event":"mousemove"},{"x":906,"y":496,"t":2947,"event":"mousemove"},{"x":894,"y":508,"t":2964,"event":"mousemove"},{"x":883,"y":518,"t":2981,"event":"mousemove"},{"x":875,"y":525,"t":2997,"event":"mousemove"},{"x":866,"y":535,"t":3014,"event":"mousemove"},{"x":860,"y":544,"t":3031,"event":"mousemove"},{"x":848,"y":558,"t":3047,"event":"mousemove"},{"x":837,"y":571,"t":3065,"event":"mousemove"},{"x":825,"y":585,"t":3080,"event":"mousemove"},{"x":817,"y":593,"t":3098,"event":"mousemove"},{"x":812,"y":599,"t":3114,"event":"mousemove"},{"x":805,"y":604,"t":3131,"event":"mousemove"},{"x":800,"y":609,"t":3147,"event":"mousemove"},{"x":795,"y":614,"t":3165,"event":"mousemove"},{"x":791,"y":619,"t":3181,"event":"mousemove"},{"x":786,"y":624,"t":3198,"event":"mousemove"},{"x":784,"y":626,"t":3214,"event":"mousemove"},{"x":784,"y":628,"t":3231,"event":"mousemove"},{"x":783,"y":629,"t":3248,"event":"mousemove"}],"mouse_tracking_targets":{},"correct":true},{"rt":1430,"stimulus":"<p>How confident are you about your choice ? (click on the bar)</p>","slider_start":50,"response":93,"trial_type":"html-slider-response","trial_index":53,"time_elapsed":80964,"internal_node_id":"0.0-18.0-2.0"},{"rt":null,"stimulus":"\n        <div id='jspsych-image' style='position: relative; width: min(80vw, 80vh); height: min(80vw, 80vh);'>\n                \n                <div style='position: absolute; top: 40%; left: 30%; bottom: 40%; right: 30%;'><h1 style='font-size: 60px; color: green;'>Correct!</h1></div>\n                \n                <div class='jspsych-image' id='jspsych-image-0' data-choice='0' style='top: 0;     left: 0;'><img style=\"width: 100%; height: 100%;\" src='../static/human_exp_images/task_color_inside_1/00_0.png' class=''></img></div>\n                <div class='jspsych-image' id='jspsych-image-1' data-choice='1' style='top: 0;     right: 0;'><img style=\"width: 100%; height: 100%;\" src='../static/human_exp_images/task_color_inside_1/00_2.png' class=''></img></div>\n                <div class='jspsych-image' id='jspsych-image-2' data-choice='2' style='bottom: 0;  left: 0;'><img style=\"width: 100%; height: 100%;\" src='../static/human_exp_images/task_color_inside_1/00_3.png' class='correct-choice'></img></div>\n                <div class='jspsych-image' id='jspsych-image-3' data-choice='3' style='bottom: 0;  right: 0;'><img style=\"width: 100%; height: 100%;\" src='../static/human_exp_images/task_color_inside_1/00_1.png' class=''></img></div>\n\n        </div>","response":null,"trial_type":"html-keyboard-response","trial_index":54,"time_elapsed":82468,"internal_node_id":"0.0-18.0-3.0"},{"rt":null,"trial_type":"image-click","trial_index":55,"time_elapsed":83125,"internal_node_id":"0.0-18.0-0.1"},{"rt":13240,"response":3,"all_choices":["../static/human_exp_images/task_color_inside_1/01_2.png","../static/human_exp_images/task_color_inside_1/01_1.png","../static/human_exp_images/task_color_inside_1/01_0.png","../static/human_exp_images/task_color_inside_1/01_3.png"],"task":"response","correct_response":3,"shuffled_array":[2,1,0,3],"catch_trial":false,"trial_type":"image-click","trial_index":56,"time_elapsed":96367,"internal_node_id":"0.0-18.0-1.1","mouse_tracking_data":[{"x":1040,"y":473,"t":1,"event":"mousemove"},{"x":1005,"y":473,"t":14,"event":"mousemove"},{"x":979,"y":473,"t":30,"event":"mousemove"},{"x":967,"y":473,"t":48,"event":"mousemove"},{"x":962,"y":473,"t":64,"event":"mousemove"},{"x":964,"y":473,"t":374,"event":"mousemove"},{"x":965,"y":473,"t":401,"event":"mousemove"},{"x":967,"y":473,"t":419,"event":"mousemove"},{"x":969,"y":473,"t":457,"event":"mousemove"},{"x":970,"y":473,"t":958,"event":"mousemove"},{"x":972,"y":473,"t":2446,"event":"mousemove"},{"x":973,"y":473,"t":3350,"event":"mousemove"},{"x":975,"y":473,"t":4253,"event":"mousemove"},{"x":976,"y":473,"t":6214,"event":"mousemove"},{"x":979,"y":473,"t":11904,"event":"mousemove"},{"x":988,"y":473,"t":11921,"event":"mousemove"},{"x":998,"y":473,"t":11937,"event":"mousemove"},{"x":1009,"y":473,"t":11954,"event":"mousemove"},{"x":1019,"y":478,"t":11970,"event":"mousemove"},{"x":1026,"y":483,"t":11987,"event":"mousemove"},{"x":1033,"y":486,"t":12003,"event":"mousemove"},{"x":1036,"y":490,"t":12020,"event":"mousemove"},{"x":1042,"y":492,"t":12037,"event":"mousemove"},{"x":1045,"y":494,"t":12053,"event":"mousemove"},{"x":1047,"y":494,"t":12251,"event":"mousemove"},{"x":1048,"y":494,"t":12268,"event":"mousemove"},{"x":1050,"y":494,"t":12296,"event":"mousemove"},{"x":1052,"y":494,"t":12377,"event":"mousemove"},{"x":1054,"y":494,"t":12395,"event":"mousemove"},{"x":1055,"y":494,"t":12422,"event":"mousemove"},{"x":1057,"y":494,"t":12449,"event":"mousemove"},{"x":1059,"y":495,"t":12495,"event":"mousemove"},{"x":1059,"y":497,"t":12505,"event":"mousemove"},{"x":1060,"y":497,"t":12521,"event":"mousemove"},{"x":1062,"y":500,"t":12537,"event":"mousemove"},{"x":1064,"y":504,"t":12554,"event":"mousemove"},{"x":1065,"y":507,"t":12571,"event":"mousemove"},{"x":1067,"y":509,"t":12587,"event":"mousemove"},{"x":1071,"y":514,"t":12604,"event":"mousemove"},{"x":1072,"y":516,"t":12621,"event":"mousemove"},{"x":1076,"y":521,"t":12637,"event":"mousemove"},{"x":1079,"y":526,"t":12654,"event":"mousemove"},{"x":1083,"y":531,"t":12671,"event":"mousemove"},{"x":1086,"y":536,"t":12687,"event":"mousemove"},{"x":1088,"y":538,"t":12704,"event":"mousemove"},{"x":1088,"y":540,"t":12721,"event":"mousemove"},{"x":1089,"y":541,"t":12738,"event":"mousemove"},{"x":1091,"y":543,"t":12754,"event":"mousemove"},{"x":1093,"y":545,"t":12771,"event":"mousemove"},{"x":1095,"y":547,"t":12788,"event":"mousemove"},{"x":1095,"y":548,"t":12804,"event":"mousemove"},{"x":1096,"y":548,"t":12859,"event":"mousemove"},{"x":1098,"y":550,"t":12921,"event":"mousemove"},{"x":1100,"y":552,"t":12949,"event":"mousemove"},{"x":1101,"y":553,"t":12967,"event":"mousemove"},{"x":1101,"y":555,"t":12977,"event":"mousemove"},{"x":1103,"y":555,"t":12988,"event":"mousemove"},{"x":1103,"y":559,"t":13004,"event":"mousemove"},{"x":1106,"y":562,"t":13021,"event":"mousemove"},{"x":1106,"y":567,"t":13038,"event":"mousemove"},{"x":1108,"y":570,"t":13055,"event":"mousemove"},{"x":1110,"y":574,"t":13072,"event":"mousemove"},{"x":1112,"y":579,"t":13088,"event":"mousemove"},{"x":1113,"y":582,"t":13105,"event":"mousemove"},{"x":1115,"y":586,"t":13121,"event":"mousemove"},{"x":1115,"y":589,"t":13138,"event":"mousemove"},{"x":1117,"y":591,"t":13154,"event":"mousemove"},{"x":1118,"y":594,"t":13172,"event":"mousemove"},{"x":1120,"y":596,"t":13188,"event":"mousemove"},{"x":1120,"y":598,"t":13212,"event":"mousemove"}],"mouse_tracking_targets":{},"correct":true},{"rt":879,"stimulus":"<p>How confident are you about your choice ? (click on the bar)</p>","slider_start":50,"response":95,"trial_type":"html-slider-response","trial_index":57,"time_elapsed":97249,"internal_node_id":"0.0-18.0-2.1"},{"rt":null,"stimulus":"\n        <div id='jspsych-image' style='position: relative; width: min(80vw, 80vh); height: min(80vw, 80vh);'>\n                \n                <div style='position: absolute; top: 40%; left: 30%; bottom: 40%; right: 30%;'><h1 style='font-size: 60px; color: green;'>Correct!</h1></div>\n                \n                <div class='jspsych-image' id='jspsych-image-0' data-choice='0' style='top: 0;     left: 0;'><img style=\"width: 100%; height: 100%;\" src='../static/human_exp_images/task_color_inside_1/01_2.png' class=''></img></div>\n                <div class='jspsych-image' id='jspsych-image-1' data-choice='1' style='top: 0;     right: 0;'><img style=\"width: 100%; height: 100%;\" src='../static/human_exp_images/task_color_inside_1/01_1.png' class=''></img></div>\n                <div class='jspsych-image' id='jspsych-image-2' data-choice='2' style='bottom: 0;  left: 0;'><img style=\"width: 100%; height: 100%;\" src='../static/human_exp_images/task_color_inside_1/01_0.png' class=''></img></div>\n                <div class='jspsych-image' id='jspsych-image-3' data-choice='3' style='bottom: 0;  right: 0;'><img style=\"width: 100%; height: 100%;\" src='../static/human_exp_images/task_color_inside_1/01_3.png' class='correct-choice'></img></div>\n\n        </div>","response":null,"trial_type":"html-keyboard-response","trial_index":58,"time_elapsed":98754,"internal_node_id":"0.0-18.0-3.1"},{"rt":null,"trial_type":"image-click","trial_index":59,"time_elapsed":99183,"internal_node_id":"0.0-18.0-0.2"},{"rt":4081,"response":0,"all_choices":["../static/human_exp_images/task_color_inside_1/02_3.png","../static/human_exp_images/task_color_inside_1/02_1.png","../static/human_exp_images/task_color_inside_1/02_2.png","../static/human_exp_images/task_color_inside_1/02_0.png"],"task":"response","correct_response":0,"shuffled_array":[3,1,2,0],"catch_trial":false,"trial_type":"image-click","trial_index":60,"time_elapsed":103268,"internal_node_id":"0.0-18.0-1.2","mouse_tracking_data":[{"x":1032,"y":501,"t":1,"event":"mousemove"},{"x":1003,"y":501,"t":13,"event":"mousemove"},{"x":974,"y":501,"t":31,"event":"mousemove"},{"x":962,"y":501,"t":47,"event":"mousemove"},{"x":957,"y":501,"t":64,"event":"mousemove"},{"x":958,"y":501,"t":222,"event":"mousemove"},{"x":960,"y":501,"t":230,"event":"mousemove"},{"x":967,"y":501,"t":247,"event":"mousemove"},{"x":970,"y":501,"t":263,"event":"mousemove"},{"x":974,"y":501,"t":281,"event":"mousemove"},{"x":975,"y":501,"t":297,"event":"mousemove"},{"x":977,"y":501,"t":314,"event":"mousemove"},{"x":979,"y":501,"t":332,"event":"mousemove"},{"x":980,"y":501,"t":350,"event":"mousemove"},{"x":982,"y":501,"t":378,"event":"mousemove"},{"x":984,"y":501,"t":433,"event":"mousemove"},{"x":984,"y":502,"t":2190,"event":"mousemove"},{"x":984,"y":504,"t":2197,"event":"mousemove"},{"x":984,"y":507,"t":2215,"event":"mousemove"},{"x":984,"y":509,"t":2231,"event":"mousemove"},{"x":984,"y":511,"t":2260,"event":"mousemove"},{"x":984,"y":512,"t":2276,"event":"mousemove"},{"x":982,"y":512,"t":2368,"event":"mousemove"},{"x":977,"y":512,"t":2381,"event":"mousemove"},{"x":970,"y":512,"t":2398,"event":"mousemove"},{"x":965,"y":512,"t":2415,"event":"mousemove"},{"x":962,"y":512,"t":2431,"event":"mousemove"},{"x":958,"y":511,"t":2449,"event":"mousemove"},{"x":953,"y":506,"t":2464,"event":"mousemove"},{"x":948,"y":500,"t":2481,"event":"mousemove"},{"x":943,"y":497,"t":2499,"event":"mousemove"},{"x":938,"y":494,"t":2514,"event":"mousemove"},{"x":934,"y":488,"t":2532,"event":"mousemove"},{"x":931,"y":487,"t":2549,"event":"mousemove"},{"x":922,"y":478,"t":2565,"event":"mousemove"},{"x":914,"y":471,"t":2581,"event":"mousemove"},{"x":905,"y":465,"t":2598,"event":"mousemove"},{"x":897,"y":456,"t":2615,"event":"mousemove"},{"x":888,"y":448,"t":2631,"event":"mousemove"},{"x":881,"y":439,"t":2648,"event":"mousemove"},{"x":871,"y":427,"t":2664,"event":"mousemove"},{"x":863,"y":417,"t":2682,"event":"mousemove"},{"x":858,"y":408,"t":2698,"event":"mousemove"},{"x":852,"y":401,"t":2715,"event":"mousemove"},{"x":851,"y":396,"t":2731,"event":"mousemove"},{"x":844,"y":389,"t":2748,"event":"mousemove"},{"x":839,"y":383,"t":2765,"event":"mousemove"},{"x":834,"y":376,"t":2781,"event":"mousemove"},{"x":828,"y":371,"t":2798,"event":"mousemove"},{"x":825,"y":366,"t":2815,"event":"mousemove"},{"x":822,"y":360,"t":2832,"event":"mousemove"},{"x":820,"y":359,"t":2848,"event":"mousemove"},{"x":817,"y":355,"t":2866,"event":"mousemove"},{"x":815,"y":350,"t":2881,"event":"mousemove"},{"x":811,"y":345,"t":2899,"event":"mousemove"},{"x":810,"y":340,"t":2916,"event":"mousemove"},{"x":806,"y":335,"t":2932,"event":"mousemove"},{"x":805,"y":331,"t":2949,"event":"mousemove"},{"x":803,"y":326,"t":2964,"event":"mousemove"},{"x":801,"y":325,"t":2982,"event":"mousemove"},{"x":801,"y":321,"t":2998,"event":"mousemove"},{"x":799,"y":319,"t":3015,"event":"mousemove"},{"x":799,"y":318,"t":3031,"event":"mousemove"},{"x":799,"y":316,"t":3048,"event":"mousemove"},{"x":798,"y":314,"t":3065,"event":"mousemove"},{"x":798,"y":313,"t":3082,"event":"mousemove"},{"x":798,"y":311,"t":3115,"event":"mousemove"},{"x":798,"y":309,"t":3169,"event":"mousemove"}],"mouse_tracking_targets":{},"correct":true},{"rt":1108,"stimulus":"<p>How confident are you about your choice ? (click on the bar)</p>","slider_start":50,"response":94,"trial_type":"html-slider-response","trial_index":61,"time_elapsed":104378,"internal_node_id":"0.0-18.0-2.2"},{"rt":null,"stimulus":"\n        <div id='jspsych-image' style='position: relative; width: min(80vw, 80vh); height: min(80vw, 80vh);'>\n                \n                <div style='position: absolute; top: 40%; left: 30%; bottom: 40%; right: 30%;'><h1 style='font-size: 60px; color: green;'>Correct!</h1></div>\n                \n                <div class='jspsych-image' id='jspsych-image-0' data-choice='0' style='top: 0;     left: 0;'><img style=\"width: 100%; height: 100%;\" src='../static/human_exp_images/task_color_inside_1/02_3.png' class='correct-choice'></img></div>\n                <div class='jspsych-image' id='jspsych-image-1' data-choice='1' style='top: 0;     right: 0;'><img style=\"width: 100%; height: 100%;\" src='../static/human_exp_images/task_color_inside_1/02_1.png' class=''></img></div>\n                <div class='jspsych-image' id='jspsych-image-2' data-choice='2' style='bottom: 0;  left: 0;'><img style=\"width: 100%; height: 100%;\" src='../static/human_exp_images/task_color_inside_1/02_2.png' class=''></img></div>\n                <div class='jspsych-image' id='jspsych-image-3' data-choice='3' style='bottom: 0;  right: 0;'><img style=\"width: 100%; height: 100%;\" src='../static/human_exp_images/task_color_inside_1/02_0.png' class=''></img></div>\n\n        </div>","response":null,"trial_type":"html-keyboard-response","trial_index":62,"time_elapsed":105882,"internal_node_id":"0.0-18.0-3.2"},{"rt":5874,"response":{"Q0":"mmm"},"trial_type":"survey-text","trial_index":63,"time_elapsed":111762,"internal_node_id":"0.0-19.0"},{"rt":null,"stimulus":"<h1 style='font-size: 60px'>Block End</h1>","response":null,"trial_type":"html-keyboard-response","trial_index":64,"time_elapsed":112269,"internal_node_id":"0.0-20.0"},{"success":true,"timeout":false,"failed_images":[],"failed_audio":[],"failed_video":[],"trial_type":"preload","trial_index":65,"time_elapsed":112361,"internal_node_id":"0.0-21.0"},{"rt":1215,"stimulus":"<h1 style='font-size: 60px'>New Rule!</h1> <p>Press any key to begin.</p>","response":" ","trial_type":"html-keyboard-response","trial_index":66,"time_elapsed":113578,"internal_node_id":"0.0-22.0"},{"rt":null,"trial_type":"image-click","trial_index":67,"time_elapsed":114235,"internal_node_id":"0.0-23.0-0.0"},{"rt":16532,"response":2,"all_choices":["../static/human_exp_images/task_shape_color/00_2.png","../static/human_exp_images/task_shape_color/00_1.png","../static/human_exp_images/task_shape_color/00_0.png","../static/human_exp_images/task_shape_color/00_3.png"],"task":"response","correct_response":3,"shuffled_array":[2,1,0,3],"catch_trial":false,"trial_type":"image-click","trial_index":68,"time_elapsed":130767,"internal_node_id":"0.0-23.0-1.0","mouse_tracking_data":[{"x":969,"y":523,"t":0,"event":"mousemove"},{"x":971,"y":495,"t":22,"event":"mousemove"},{"x":975,"y":479,"t":39,"event":"mousemove"},{"x":980,"y":471,"t":56,"event":"mousemove"},{"x":982,"y":466,"t":72,"event":"mousemove"},{"x":984,"y":466,"t":97,"event":"mousemove"},{"x":984,"y":464,"t":449,"event":"mousemove"},{"x":984,"y":466,"t":12641,"event":"mousemove"},{"x":984,"y":467,"t":12650,"event":"mousemove"},{"x":984,"y":469,"t":12675,"event":"mousemove"},{"x":984,"y":471,"t":12709,"event":"mousemove"},{"x":984,"y":472,"t":12719,"event":"mousemove"},{"x":984,"y":478,"t":12729,"event":"mousemove"},{"x":978,"y":484,"t":12745,"event":"mousemove"},{"x":977,"y":490,"t":12762,"event":"mousemove"},{"x":970,"y":498,"t":12778,"event":"mousemove"},{"x":966,"y":505,"t":12795,"event":"mousemove"},{"x":965,"y":510,"t":12813,"event":"mousemove"},{"x":963,"y":510,"t":12828,"event":"mousemove"},{"x":963,"y":512,"t":12846,"event":"mousemove"},{"x":963,"y":513,"t":12862,"event":"mousemove"},{"x":963,"y":515,"t":12879,"event":"mousemove"},{"x":961,"y":515,"t":12936,"event":"mousemove"},{"x":960,"y":517,"t":13201,"event":"mousemove"},{"x":956,"y":519,"t":13213,"event":"mousemove"},{"x":955,"y":519,"t":13229,"event":"mousemove"},{"x":955,"y":520,"t":13248,"event":"mousemove"},{"x":953,"y":520,"t":15876,"event":"mousemove"},{"x":951,"y":520,"t":15881,"event":"mousemove"},{"x":934,"y":520,"t":15897,"event":"mousemove"},{"x":912,"y":520,"t":15914,"event":"mousemove"},{"x":893,"y":522,"t":15932,"event":"mousemove"},{"x":885,"y":524,"t":15948,"event":"mousemove"},{"x":871,"y":525,"t":15965,"event":"mousemove"},{"x":862,"y":527,"t":15981,"event":"mousemove"},{"x":854,"y":529,"t":15998,"event":"mousemove"},{"x":844,"y":532,"t":16014,"event":"mousemove"},{"x":837,"y":534,"t":16031,"event":"mousemove"},{"x":830,"y":536,"t":16049,"event":"mousemove"},{"x":826,"y":536,"t":16064,"event":"mousemove"},{"x":821,"y":537,"t":16080,"event":"mousemove"},{"x":818,"y":539,"t":16097,"event":"mousemove"},{"x":814,"y":541,"t":16114,"event":"mousemove"},{"x":809,"y":544,"t":16131,"event":"mousemove"},{"x":808,"y":546,"t":16147,"event":"mousemove"},{"x":802,"y":548,"t":16165,"event":"mousemove"},{"x":799,"y":551,"t":16180,"event":"mousemove"},{"x":794,"y":554,"t":16198,"event":"mousemove"},{"x":787,"y":561,"t":16213,"event":"mousemove"},{"x":779,"y":570,"t":16231,"event":"mousemove"},{"x":770,"y":580,"t":16248,"event":"mousemove"},{"x":763,"y":587,"t":16264,"event":"mousemove"},{"x":755,"y":595,"t":16282,"event":"mousemove"},{"x":746,"y":606,"t":16298,"event":"mousemove"},{"x":741,"y":611,"t":16315,"event":"mousemove"},{"x":739,"y":613,"t":16331,"event":"mousemove"},{"x":738,"y":616,"t":16348,"event":"mousemove"},{"x":736,"y":618,"t":16364,"event":"mousemove"},{"x":734,"y":618,"t":16382,"event":"mousemove"},{"x":734,"y":619,"t":16397,"event":"mousemove"},{"x":732,"y":619,"t":16415,"event":"mousemove"},{"x":731,"y":621,"t":16431,"event":"mousemove"}],"mouse_tracking_targets":{},"correct":false},{"rt":1155,"stimulus":"<p>How confident are you about your choice ? (click on the bar)</p>","slider_start":50,"response":86,"trial_type":"html-slider-response","trial_index":69,"time_elapsed":131926,"internal_node_id":"0.0-23.0-2.0"},{"rt":null,"stimulus":"\n        <div id='jspsych-image' style='position: relative; width: min(80vw, 80vh); height: min(80vw, 80vh);'>\n                \n                <div style='position: absolute; top: 40%; left: 30%; bottom: 40%; right: 30%;'><h1 style='font-size: 60px; color: red'>Wrong</h1></div>\n                \n                <div class='jspsych-image' id='jspsych-image-0' data-choice='0' style='top: 0;     left: 0;'><img style=\"width: 100%; height: 100%;\" src='../static/human_exp_images/task_shape_color/00_2.png' class=''></img></div>\n                <div class='jspsych-image' id='jspsych-image-1' data-choice='1' style='top: 0;     right: 0;'><img style=\"width: 100%; height: 100%;\" src='../static/human_exp_images/task_shape_color/00_1.png' class=''></img></div>\n                <div class='jspsych-image' id='jspsych-image-2' data-choice='2' style='bottom: 0;  left: 0;'><img style=\"width: 100%; height: 100%;\" src='../static/human_exp_images/task_shape_color/00_0.png' class='wrong-choice'></img></div>\n                <div class='jspsych-image' id='jspsych-image-3' data-choice='3' style='bottom: 0;  right: 0;'><img style=\"width: 100%; height: 100%;\" src='../static/human_exp_images/task_shape_color/00_3.png' class='correct-choice'></img></div>\n\n        </div>","response":null,"trial_type":"html-keyboard-response","trial_index":70,"time_elapsed":134432,"internal_node_id":"0.0-23.0-3.0"},{"rt":null,"trial_type":"image-click","trial_index":71,"time_elapsed":135153,"internal_node_id":"0.0-23.0-0.1"},{"rt":6265,"response":1,"all_choices":["../static/human_exp_images/task_shape_color/01_1.png","../static/human_exp_images/task_shape_color/01_3.png","../static/human_exp_images/task_shape_color/01_2.png","../static/human_exp_images/task_shape_color/01_0.png"],"task":"response","correct_response":1,"shuffled_array":[1,3,2,0],"catch_trial":false,"trial_type":"image-click","trial_index":72,"time_elapsed":141425,"internal_node_id":"0.0-23.0-1.1","mouse_tracking_data":[{"x":1050,"y":479,"t":1,"event":"mousemove"},{"x":1020,"y":479,"t":10,"event":"mousemove"},{"x":1002,"y":479,"t":26,"event":"mousemove"},{"x":993,"y":479,"t":43,"event":"mousemove"},{"x":985,"y":479,"t":59,"event":"mousemove"},{"x":978,"y":479,"t":76,"event":"mousemove"},{"x":976,"y":479,"t":92,"event":"mousemove"},{"x":976,"y":480,"t":5649,"event":"mousemove"},{"x":978,"y":480,"t":5723,"event":"mousemove"},{"x":980,"y":480,"t":5731,"event":"mousemove"},{"x":986,"y":480,"t":5747,"event":"mousemove"},{"x":1002,"y":480,"t":5762,"event":"mousemove"},{"x":1017,"y":467,"t":5780,"event":"mousemove"},{"x":1029,"y":456,"t":5796,"event":"mousemove"},{"x":1033,"y":449,"t":5813,"event":"mousemove"},{"x":1034,"y":448,"t":5829,"event":"mousemove"},{"x":1036,"y":446,"t":5846,"event":"mousemove"},{"x":1038,"y":446,"t":5903,"event":"mousemove"},{"x":1038,"y":444,"t":5912,"event":"mousemove"},{"x":1041,"y":441,"t":5929,"event":"mousemove"},{"x":1050,"y":431,"t":5946,"event":"mousemove"},{"x":1060,"y":419,"t":5962,"event":"mousemove"},{"x":1075,"y":402,"t":5979,"event":"mousemove"},{"x":1094,"y":380,"t":5997,"event":"mousemove"},{"x":1108,"y":362,"t":6013,"event":"mousemove"},{"x":1121,"y":345,"t":6029,"event":"mousemove"},{"x":1129,"y":326,"t":6046,"event":"mousemove"},{"x":1141,"y":306,"t":6063,"event":"mousemove"},{"x":1147,"y":295,"t":6079,"event":"mousemove"},{"x":1149,"y":291,"t":6096,"event":"mousemove"},{"x":1150,"y":289,"t":6112,"event":"mousemove"},{"x":1150,"y":288,"t":6129,"event":"mousemove"}],"mouse_tracking_targets":{},"correct":true},{"rt":831,"stimulus":"<p>How confident are you about your choice ? (click on the bar)</p>","slider_start":50,"response":98,"trial_type":"html-slider-response","trial_index":73,"time_elapsed":142259,"internal_node_id":"0.0-23.0-2.1"},{"rt":null,"stimulus":"\n        <div id='jspsych-image' style='position: relative; width: min(80vw, 80vh); height: min(80vw, 80vh);'>\n                \n                <div style='position: absolute; top: 40%; left: 30%; bottom: 40%; right: 30%;'><h1 style='font-size: 60px; color: green;'>Correct!</h1></div>\n                \n                <div class='jspsych-image' id='jspsych-image-0' data-choice='0' style='top: 0;     left: 0;'><img style=\"width: 100%; height: 100%;\" src='../static/human_exp_images/task_shape_color/01_1.png' class=''></img></div>\n                <div class='jspsych-image' id='jspsych-image-1' data-choice='1' style='top: 0;     right: 0;'><img style=\"width: 100%; height: 100%;\" src='../static/human_exp_images/task_shape_color/01_3.png' class='correct-choice'></img></div>\n                <div class='jspsych-image' id='jspsych-image-2' data-choice='2' style='bottom: 0;  left: 0;'><img style=\"width: 100%; height: 100%;\" src='../static/human_exp_images/task_shape_color/01_2.png' class=''></img></div>\n                <div class='jspsych-image' id='jspsych-image-3' data-choice='3' style='bottom: 0;  right: 0;'><img style=\"width: 100%; height: 100%;\" src='../static/human_exp_images/task_shape_color/01_0.png' class=''></img></div>\n\n        </div>","response":null,"trial_type":"html-keyboard-response","trial_index":74,"time_elapsed":143763,"internal_node_id":"0.0-23.0-3.1"},{"rt":null,"trial_type":"image-click","trial_index":75,"time_elapsed":144290,"internal_node_id":"0.0-23.0-0.2"},{"rt":3325,"response":1,"all_choices":["../static/human_exp_images/task_shape_color/02_1.png","../static/human_exp_images/task_shape_color/02_3.png","../static/human_exp_images/task_shape_color/02_0.png","../static/human_exp_images/task_shape_color/02_2.png"],"task":"response","correct_response":1,"shuffled_array":[1,3,0,2],"catch_trial":false,"trial_type":"image-click","trial_index":76,"time_elapsed":147617,"internal_node_id":"0.0-23.0-1.2","mouse_tracking_data":[{"x":1048,"y":469,"t":0,"event":"mousemove"},{"x":1031,"y":469,"t":16,"event":"mousemove"},{"x":1021,"y":469,"t":33,"event":"mousemove"},{"x":1014,"y":469,"t":50,"event":"mousemove"},{"x":1014,"y":468,"t":194,"event":"mousemove"},{"x":1014,"y":466,"t":239,"event":"mousemove"},{"x":1016,"y":466,"t":796,"event":"mousemove"},{"x":1016,"y":464,"t":2555,"event":"mousemove"},{"x":1016,"y":463,"t":2609,"event":"mousemove"},{"x":1017,"y":461,"t":2627,"event":"mousemove"},{"x":1017,"y":459,"t":2643,"event":"mousemove"},{"x":1019,"y":458,"t":2652,"event":"mousemove"},{"x":1022,"y":452,"t":2667,"event":"mousemove"},{"x":1035,"y":433,"t":2685,"event":"mousemove"},{"x":1047,"y":415,"t":2700,"event":"mousemove"},{"x":1056,"y":403,"t":2718,"event":"mousemove"},{"x":1059,"y":397,"t":2734,"event":"mousemove"},{"x":1062,"y":393,"t":2751,"event":"mousemove"},{"x":1064,"y":390,"t":2769,"event":"mousemove"},{"x":1066,"y":388,"t":2784,"event":"mousemove"},{"x":1066,"y":386,"t":2808,"event":"mousemove"},{"x":1066,"y":385,"t":2944,"event":"mousemove"},{"x":1066,"y":383,"t":3008,"event":"mousemove"},{"x":1068,"y":381,"t":3043,"event":"mousemove"},{"x":1069,"y":381,"t":3053,"event":"mousemove"},{"x":1076,"y":374,"t":3068,"event":"mousemove"},{"x":1092,"y":355,"t":3085,"event":"mousemove"},{"x":1116,"y":330,"t":3102,"event":"mousemove"},{"x":1146,"y":298,"t":3119,"event":"mousemove"},{"x":1178,"y":269,"t":3135,"event":"mousemove"},{"x":1199,"y":247,"t":3151,"event":"mousemove"},{"x":1205,"y":239,"t":3168,"event":"mousemove"},{"x":1209,"y":232,"t":3185,"event":"mousemove"},{"x":1209,"y":230,"t":3215,"event":"mousemove"}],"mouse_tracking_targets":{},"correct":true},{"rt":912,"stimulus":"<p>How confident are you about your choice ? (click on the bar)</p>","slider_start":50,"response":100,"trial_type":"html-slider-response","trial_index":77,"time_elapsed":148532,"internal_node_id":"0.0-23.0-2.2"},{"rt":null,"stimulus":"\n        <div id='jspsych-image' style='position: relative; width: min(80vw, 80vh); height: min(80vw, 80vh);'>\n                \n                <div style='position: absolute; top: 40%; left: 30%; bottom: 40%; right: 30%;'><h1 style='font-size: 60px; color: green;'>Correct!</h1></div>\n                \n                <div class='jspsych-image' id='jspsych-image-0' data-choice='0' style='top: 0;     left: 0;'><img style=\"width: 100%; height: 100%;\" src='../static/human_exp_images/task_shape_color/02_1.png' class=''></img></div>\n                <div class='jspsych-image' id='jspsych-image-1' data-choice='1' style='top: 0;     right: 0;'><img style=\"width: 100%; height: 100%;\" src='../static/human_exp_images/task_shape_color/02_3.png' class='correct-choice'></img></div>\n                <div class='jspsych-image' id='jspsych-image-2' data-choice='2' style='bottom: 0;  left: 0;'><img style=\"width: 100%; height: 100%;\" src='../static/human_exp_images/task_shape_color/02_0.png' class=''></img></div>\n                <div class='jspsych-image' id='jspsych-image-3' data-choice='3' style='bottom: 0;  right: 0;'><img style=\"width: 100%; height: 100%;\" src='../static/human_exp_images/task_shape_color/02_2.png' class=''></img></div>\n\n        </div>","response":null,"trial_type":"html-keyboard-response","trial_index":78,"time_elapsed":150035,"internal_node_id":"0.0-23.0-3.2"},{"rt":4961,"response":{"Q0":"llol"},"trial_type":"survey-text","trial_index":79,"time_elapsed":155003,"internal_node_id":"0.0-24.0"},{"rt":null,"stimulus":"<h1 style='font-size: 60px'>Block End</h1>","response":null,"trial_type":"html-keyboard-response","trial_index":80,"time_elapsed":155511,"internal_node_id":"0.0-25.0"},{"success":true,"timeout":false,"failed_images":[],"failed_audio":[],"failed_video":[],"trial_type":"preload","trial_index":81,"time_elapsed":155554,"internal_node_id":"0.0-26.0"},{"rt":812,"stimulus":"<h1 style='font-size: 60px'>New Rule!</h1> <p>Press any key to begin.</p>","response":" ","trial_type":"html-keyboard-response","trial_index":82,"time_elapsed":156366,"internal_node_id":"0.0-27.0"},{"rt":null,"trial_type":"image-click","trial_index":83,"time_elapsed":157231,"internal_node_id":"0.0-28.0-0.0"},{"rt":53316,"response":3,"all_choices":["../static/human_exp_images/task_rot_inside_1/00_0.png","../static/human_exp_images/task_rot_inside_1/00_2.png","../static/human_exp_images/task_rot_inside_1/00_1.png","../static/human_exp_images/task_rot_inside_1/00_3.png"],"task":"response","correct_response":3,"shuffled_array":[0,2,1,3],"catch_trial":false,"trial_type":"image-click","trial_index":84,"time_elapsed":210549,"internal_node_id":"0.0-28.0-1.0","mouse_tracking_data":[{"x":944,"y":541,"t":1,"event":"mousemove"},{"x":942,"y":528,"t":14,"event":"mousemove"},{"x":941,"y":512,"t":30,"event":"mousemove"},{"x":941,"y":504,"t":47,"event":"mousemove"},{"x":941,"y":495,"t":64,"event":"mousemove"},{"x":941,"y":490,"t":80,"event":"mousemove"},{"x":941,"y":488,"t":98,"event":"mousemove"},{"x":941,"y":487,"t":208,"event":"mousemove"},{"x":939,"y":487,"t":1464,"event":"mousemove"},{"x":939,"y":488,"t":1908,"event":"mousemove"},{"x":939,"y":490,"t":1935,"event":"mousemove"},{"x":939,"y":491,"t":2636,"event":"mousemove"},{"x":939,"y":493,"t":2654,"event":"mousemove"},{"x":939,"y":495,"t":2682,"event":"mousemove"},{"x":939,"y":496,"t":2702,"event":"mousemove"},{"x":939,"y":498,"t":2719,"event":"mousemove"},{"x":939,"y":500,"t":2737,"event":"mousemove"},{"x":939,"y":502,"t":2765,"event":"mousemove"},{"x":939,"y":503,"t":2782,"event":"mousemove"},{"x":939,"y":505,"t":2800,"event":"mousemove"},{"x":939,"y":507,"t":2828,"event":"mousemove"},{"x":939,"y":508,"t":2838,"event":"mousemove"},{"x":939,"y":510,"t":2848,"event":"mousemove"},{"x":939,"y":512,"t":2865,"event":"mousemove"},{"x":939,"y":515,"t":2882,"event":"mousemove"},{"x":939,"y":517,"t":2898,"event":"mousemove"},{"x":939,"y":520,"t":2915,"event":"mousemove"},{"x":939,"y":522,"t":2932,"event":"mousemove"},{"x":939,"y":525,"t":2948,"event":"mousemove"},{"x":939,"y":527,"t":2965,"event":"mousemove"},{"x":939,"y":529,"t":2981,"event":"mousemove"},{"x":939,"y":531,"t":3001,"event":"mousemove"},{"x":939,"y":532,"t":3015,"event":"mousemove"},{"x":939,"y":534,"t":3033,"event":"mousemove"},{"x":939,"y":536,"t":3048,"event":"mousemove"},{"x":939,"y":537,"t":3066,"event":"mousemove"},{"x":939,"y":539,"t":3082,"event":"mousemove"},{"x":939,"y":541,"t":3100,"event":"mousemove"},{"x":939,"y":543,"t":3127,"event":"mousemove"},{"x":939,"y":544,"t":3146,"event":"mousemove"},{"x":939,"y":546,"t":3163,"event":"mousemove"},{"x":939,"y":548,"t":3190,"event":"mousemove"},{"x":939,"y":549,"t":3273,"event":"mousemove"},{"x":939,"y":551,"t":3364,"event":"mousemove"},{"x":941,"y":551,"t":3556,"event":"mousemove"},{"x":943,"y":551,"t":3575,"event":"mousemove"},{"x":943,"y":553,"t":3582,"event":"mousemove"},{"x":943,"y":556,"t":3599,"event":"mousemove"},{"x":944,"y":558,"t":3615,"event":"mousemove"},{"x":946,"y":558,"t":3632,"event":"mousemove"},{"x":948,"y":560,"t":3649,"event":"mousemove"},{"x":948,"y":561,"t":3665,"event":"mousemove"},{"x":948,"y":563,"t":3683,"event":"mousemove"},{"x":949,"y":563,"t":3701,"event":"mousemove"},{"x":951,"y":563,"t":3739,"event":"mousemove"},{"x":953,"y":563,"t":4681,"event":"mousemove"},{"x":953,"y":565,"t":4698,"event":"mousemove"},{"x":954,"y":565,"t":4707,"event":"mousemove"},{"x":954,"y":566,"t":4780,"event":"mousemove"},{"x":956,"y":566,"t":4807,"event":"mousemove"},{"x":958,"y":566,"t":4843,"event":"mousemove"},{"x":958,"y":568,"t":4879,"event":"mousemove"},{"x":959,"y":568,"t":5015,"event":"mousemove"},{"x":959,"y":570,"t":52905,"event":"mousemove"},{"x":961,"y":571,"t":52908,"event":"mousemove"},{"x":975,"y":576,"t":52925,"event":"mousemove"},{"x":985,"y":583,"t":52940,"event":"mousemove"},{"x":997,"y":592,"t":52957,"event":"mousemove"},{"x":1002,"y":595,"t":52975,"event":"mousemove"},{"x":1011,"y":605,"t":52991,"event":"mousemove"},{"x":1019,"y":617,"t":53009,"event":"mousemove"},{"x":1026,"y":629,"t":53025,"event":"mousemove"},{"x":1031,"y":640,"t":53042,"event":"mousemove"},{"x":1036,"y":648,"t":53058,"event":"mousemove"},{"x":1041,"y":660,"t":53075,"event":"mousemove"},{"x":1048,"y":671,"t":53091,"event":"mousemove"},{"x":1055,"y":677,"t":53107,"event":"mousemove"},{"x":1062,"y":686,"t":53124,"event":"mousemove"},{"x":1070,"y":693,"t":53141,"event":"mousemove"},{"x":1076,"y":698,"t":53158,"event":"mousemove"},{"x":1081,"y":701,"t":53175,"event":"mousemove"},{"x":1087,"y":706,"t":53191,"event":"mousemove"},{"x":1093,"y":710,"t":53208,"event":"mousemove"},{"x":1096,"y":712,"t":53224,"event":"mousemove"},{"x":1098,"y":712,"t":53240,"event":"mousemove"},{"x":1099,"y":712,"t":53251,"event":"mousemove"}],"mouse_tracking_targets":{},"correct":true},{"rt":1338,"stimulus":"<p>How confident are you about your choice ? (click on the bar)</p>","slider_start":50,"response":92,"trial_type":"html-slider-response","trial_index":85,"time_elapsed":211891,"internal_node_id":"0.0-28.0-2.0"},{"rt":null,"stimulus":"\n        <div id='jspsych-image' style='position: relative; width: min(80vw, 80vh); height: min(80vw, 80vh);'>\n                \n                <div style='position: absolute; top: 40%; left: 30%; bottom: 40%; right: 30%;'><h1 style='font-size: 60px; color: green;'>Correct!</h1></div>\n                \n                <div class='jspsych-image' id='jspsych-image-0' data-choice='0' style='top: 0;     left: 0;'><img style=\"width: 100%; height: 100%;\" src='../static/human_exp_images/task_rot_inside_1/00_0.png' class=''></img></div>\n                <div class='jspsych-image' id='jspsych-image-1' data-choice='1' style='top: 0;     right: 0;'><img style=\"width: 100%; height: 100%;\" src='../static/human_exp_images/task_rot_inside_1/00_2.png' class=''></img></div>\n                <div class='jspsych-image' id='jspsych-image-2' data-choice='2' style='bottom: 0;  left: 0;'><img style=\"width: 100%; height: 100%;\" src='../static/human_exp_images/task_rot_inside_1/00_1.png' class=''></img></div>\n                <div class='jspsych-image' id='jspsych-image-3' data-choice='3' style='bottom: 0;  right: 0;'><img style=\"width: 100%; height: 100%;\" src='../static/human_exp_images/task_rot_inside_1/00_3.png' class='correct-choice'></img></div>\n\n        </div>","response":null,"trial_type":"html-keyboard-response","trial_index":86,"time_elapsed":213396,"internal_node_id":"0.0-28.0-3.0"},{"rt":null,"trial_type":"image-click","trial_index":87,"time_elapsed":214045,"internal_node_id":"0.0-28.0-0.1"},{"rt":10102,"response":0,"all_choices":["../static/human_exp_images/task_rot_inside_1/01_3.png","../static/human_exp_images/task_rot_inside_1/01_1.png","../static/human_exp_images/task_rot_inside_1/01_0.png","../static/human_exp_images/task_rot_inside_1/01_2.png"],"task":"response","correct_response":0,"shuffled_array":[3,1,0,2],"catch_trial":false,"trial_type":"image-click","trial_index":88,"time_elapsed":224151,"internal_node_id":"0.0-28.0-1.1","mouse_tracking_data":[{"x":1048,"y":482,"t":1,"event":"mousemove"},{"x":1022,"y":482,"t":12,"event":"mousemove"},{"x":1009,"y":482,"t":29,"event":"mousemove"},{"x":1000,"y":482,"t":45,"event":"mousemove"},{"x":998,"y":482,"t":62,"event":"mousemove"},{"x":997,"y":482,"t":79,"event":"mousemove"},{"x":997,"y":480,"t":201,"event":"mousemove"},{"x":997,"y":478,"t":255,"event":"mousemove"},{"x":998,"y":478,"t":337,"event":"mousemove"},{"x":1000,"y":478,"t":1078,"event":"mousemove"},{"x":1001,"y":481,"t":9444,"event":"mousemove"},{"x":1003,"y":481,"t":9450,"event":"mousemove"},{"x":1005,"y":493,"t":9467,"event":"mousemove"},{"x":1005,"y":496,"t":9484,"event":"mousemove"},{"x":1007,"y":499,"t":9501,"event":"mousemove"},{"x":1007,"y":501,"t":9517,"event":"mousemove"},{"x":1004,"y":501,"t":9560,"event":"mousemove"},{"x":1002,"y":501,"t":9567,"event":"mousemove"},{"x":990,"y":501,"t":9584,"event":"mousemove"},{"x":982,"y":491,"t":9601,"event":"mousemove"},{"x":971,"y":479,"t":9617,"event":"mousemove"},{"x":963,"y":463,"t":9634,"event":"mousemove"},{"x":954,"y":448,"t":9650,"event":"mousemove"},{"x":947,"y":436,"t":9667,"event":"mousemove"},{"x":938,"y":423,"t":9683,"event":"mousemove"},{"x":933,"y":415,"t":9700,"event":"mousemove"},{"x":926,"y":406,"t":9717,"event":"mousemove"},{"x":921,"y":396,"t":9733,"event":"mousemove"},{"x":916,"y":389,"t":9750,"event":"mousemove"},{"x":909,"y":379,"t":9767,"event":"mousemove"},{"x":904,"y":370,"t":9783,"event":"mousemove"},{"x":899,"y":360,"t":9799,"event":"mousemove"},{"x":892,"y":353,"t":9817,"event":"mousemove"},{"x":889,"y":348,"t":9833,"event":"mousemove"},{"x":884,"y":343,"t":9850,"event":"mousemove"},{"x":875,"y":334,"t":9866,"event":"mousemove"},{"x":868,"y":326,"t":9883,"event":"mousemove"},{"x":860,"y":319,"t":9900,"event":"mousemove"},{"x":853,"y":312,"t":9916,"event":"mousemove"},{"x":848,"y":305,"t":9934,"event":"mousemove"},{"x":844,"y":302,"t":9950,"event":"mousemove"},{"x":839,"y":297,"t":9967,"event":"mousemove"},{"x":837,"y":293,"t":9983,"event":"mousemove"},{"x":836,"y":292,"t":10000,"event":"mousemove"}],"mouse_tracking_targets":{},"correct":true},{"rt":1013,"stimulus":"<p>How confident are you about your choice ? (click on the bar)</p>","slider_start":50,"response":97,"trial_type":"html-slider-response","trial_index":89,"time_elapsed":225167,"internal_node_id":"0.0-28.0-2.1"},{"rt":null,"stimulus":"\n        <div id='jspsych-image' style='position: relative; width: min(80vw, 80vh); height: min(80vw, 80vh);'>\n                \n                <div style='position: absolute; top: 40%; left: 30%; bottom: 40%; right: 30%;'><h1 style='font-size: 60px; color: green;'>Correct!</h1></div>\n                \n                <div class='jspsych-image' id='jspsych-image-0' data-choice='0' style='top: 0;     left: 0;'><img style=\"width: 100%; height: 100%;\" src='../static/human_exp_images/task_rot_inside_1/01_3.png' class='correct-choice'></img></div>\n                <div class='jspsych-image' id='jspsych-image-1' data-choice='1' style='top: 0;     right: 0;'><img style=\"width: 100%; height: 100%;\" src='../static/human_exp_images/task_rot_inside_1/01_1.png' class=''></img></div>\n                <div class='jspsych-image' id='jspsych-image-2' data-choice='2' style='bottom: 0;  left: 0;'><img style=\"width: 100%; height: 100%;\" src='../static/human_exp_images/task_rot_inside_1/01_0.png' class=''></img></div>\n                <div class='jspsych-image' id='jspsych-image-3' data-choice='3' style='bottom: 0;  right: 0;'><img style=\"width: 100%; height: 100%;\" src='../static/human_exp_images/task_rot_inside_1/01_2.png' class=''></img></div>\n\n        </div>","response":null,"trial_type":"html-keyboard-response","trial_index":90,"time_elapsed":226671,"internal_node_id":"0.0-28.0-3.1"},{"rt":null,"trial_type":"image-click","trial_index":91,"time_elapsed":227234,"internal_node_id":"0.0-28.0-0.2"},{"rt":20812,"response":3,"all_choices":["../static/human_exp_images/task_rot_inside_1/02_3.png","../static/human_exp_images/task_rot_inside_1/02_1.png","../static/human_exp_images/task_rot_inside_1/02_0.png","../static/human_exp_images/task_rot_inside_1/02_2.png"],"task":"response","correct_response":0,"shuffled_array":[3,1,0,2],"catch_trial":false,"trial_type":"image-click","trial_index":92,"time_elapsed":248049,"internal_node_id":"0.0-28.0-1.2","mouse_tracking_data":[{"x":1050,"y":467,"t":1,"event":"mousemove"},{"x":1031,"y":465,"t":12,"event":"mousemove"},{"x":1014,"y":462,"t":29,"event":"mousemove"},{"x":1004,"y":460,"t":45,"event":"mousemove"},{"x":993,"y":457,"t":62,"event":"mousemove"},{"x":988,"y":457,"t":79,"event":"mousemove"},{"x":981,"y":457,"t":95,"event":"mousemove"},{"x":978,"y":457,"t":113,"event":"mousemove"},{"x":975,"y":457,"t":129,"event":"mousemove"},{"x":973,"y":457,"t":146,"event":"mousemove"},{"x":971,"y":457,"t":162,"event":"mousemove"},{"x":971,"y":455,"t":264,"event":"mousemove"},{"x":971,"y":453,"t":292,"event":"mousemove"},{"x":971,"y":451,"t":310,"event":"mousemove"},{"x":971,"y":450,"t":337,"event":"mousemove"},{"x":971,"y":448,"t":373,"event":"mousemove"},{"x":973,"y":448,"t":538,"event":"mousemove"},{"x":974,"y":448,"t":1763,"event":"mousemove"},{"x":976,"y":448,"t":1983,"event":"mousemove"},{"x":976,"y":446,"t":2203,"event":"mousemove"},{"x":978,"y":446,"t":2441,"event":"mousemove"},{"x":978,"y":445,"t":2458,"event":"mousemove"},{"x":980,"y":445,"t":2486,"event":"mousemove"},{"x":981,"y":445,"t":2550,"event":"mousemove"},{"x":983,"y":445,"t":2578,"event":"mousemove"},{"x":983,"y":443,"t":2613,"event":"mousemove"},{"x":985,"y":441,"t":2678,"event":"mousemove"},{"x":986,"y":441,"t":2724,"event":"mousemove"},{"x":988,"y":441,"t":20433,"event":"mousemove"},{"x":990,"y":441,"t":20439,"event":"mousemove"},{"x":998,"y":441,"t":20457,"event":"mousemove"},{"x":1010,"y":450,"t":20473,"event":"mousemove"},{"x":1030,"y":467,"t":20490,"event":"mousemove"},{"x":1050,"y":488,"t":20505,"event":"mousemove"},{"x":1068,"y":501,"t":20523,"event":"mousemove"},{"x":1080,"y":511,"t":20539,"event":"mousemove"},{"x":1087,"y":515,"t":20556,"event":"mousemove"},{"x":1094,"y":522,"t":20573,"event":"mousemove"},{"x":1103,"y":529,"t":20589,"event":"mousemove"},{"x":1109,"y":534,"t":20606,"event":"mousemove"},{"x":1118,"y":543,"t":20623,"event":"mousemove"},{"x":1126,"y":549,"t":20639,"event":"mousemove"},{"x":1133,"y":556,"t":20656,"event":"mousemove"},{"x":1142,"y":563,"t":20673,"event":"mousemove"},{"x":1149,"y":570,"t":20690,"event":"mousemove"},{"x":1154,"y":575,"t":20707,"event":"mousemove"},{"x":1156,"y":575,"t":20723,"event":"mousemove"}],"mouse_tracking_targets":{},"correct":false},{"rt":946,"stimulus":"<p>How confident are you about your choice ? (click on the bar)</p>","slider_start":50,"response":94,"trial_type":"html-slider-response","trial_index":93,"time_elapsed":248998,"internal_node_id":"0.0-28.0-2.2"},{"rt":null,"stimulus":"\n        <div id='jspsych-image' style='position: relative; width: min(80vw, 80vh); height: min(80vw, 80vh);'>\n                \n                <div style='position: absolute; top: 40%; left: 30%; bottom: 40%; right: 30%;'><h1 style='font-size: 60px; color: red'>Wrong</h1></div>\n                \n                <div class='jspsych-image' id='jspsych-image-0' data-choice='0' style='top: 0;     left: 0;'><img style=\"width: 100%; height: 100%;\" src='../static/human_exp_images/task_rot_inside_1/02_3.png' class='correct-choice'></img></div>\n                <div class='jspsych-image' id='jspsych-image-1' data-choice='1' style='top: 0;     right: 0;'><img style=\"width: 100%; height: 100%;\" src='../static/human_exp_images/task_rot_inside_1/02_1.png' class=''></img></div>\n                <div class='jspsych-image' id='jspsych-image-2' data-choice='2' style='bottom: 0;  left: 0;'><img style=\"width: 100%; height: 100%;\" src='../static/human_exp_images/task_rot_inside_1/02_0.png' class=''></img></div>\n                <div class='jspsych-image' id='jspsych-image-3' data-choice='3' style='bottom: 0;  right: 0;'><img style=\"width: 100%; height: 100%;\" src='../static/human_exp_images/task_rot_inside_1/02_2.png' class='wrong-choice'></img></div>\n\n        </div>","response":null,"trial_type":"html-keyboard-response","trial_index":94,"time_elapsed":251502,"internal_node_id":"0.0-28.0-3.2"},{"rt":1456,"response":{"Q0":""},"trial_type":"survey-text","trial_index":95,"time_elapsed":252964,"internal_node_id":"0.0-29.0"},{"rt":null,"stimulus":"<h1 style='font-size: 60px'>Block End</h1>","response":null,"trial_type":"html-keyboard-response","trial_index":96,"time_elapsed":253472,"internal_node_id":"0.0-30.0"},{"success":true,"timeout":false,"failed_images":[],"failed_audio":[],"failed_video":[],"trial_type":"preload","trial_index":97,"time_elapsed":253550,"internal_node_id":"0.0-31.0"},{"rt":1770,"stimulus":"<h1 style='font-size: 60px'>New Rule!</h1> <p>Press any key to begin.</p>","response":" ","trial_type":"html-keyboard-response","trial_index":98,"time_elapsed":255322,"internal_node_id":"0.0-32.0"},{"rt":null,"trial_type":"image-click","trial_index":99,"time_elapsed":255324,"internal_node_id":"0.0-33.0-0.0"},{"rt":16733,"response":0,"all_choices":["../static/human_exp_images/task_flip_contact_1/00_3.png","../static/human_exp_images/task_flip_contact_1/00_1.png","../static/human_exp_images/task_flip_contact_1/00_0.png","../static/human_exp_images/task_flip_contact_1/00_2.png"],"task":"response","correct_response":0,"shuffled_array":[3,1,0,2],"catch_trial":false,"trial_type":"image-click","trial_index":100,"time_elapsed":272060,"internal_node_id":"0.0-33.0-1.0","mouse_tracking_data":[{"x":984,"y":509,"t":16321,"event":"mousemove"},{"x":982,"y":509,"t":16332,"event":"mousemove"},{"x":981,"y":507,"t":16348,"event":"mousemove"},{"x":970,"y":500,"t":16364,"event":"mousemove"},{"x":957,"y":486,"t":16381,"event":"mousemove"},{"x":935,"y":461,"t":16397,"event":"mousemove"},{"x":914,"y":428,"t":16414,"event":"mousemove"},{"x":890,"y":387,"t":16431,"event":"mousemove"},{"x":869,"y":356,"t":16447,"event":"mousemove"},{"x":839,"y":318,"t":16465,"event":"mousemove"},{"x":818,"y":295,"t":16481,"event":"mousemove"},{"x":808,"y":281,"t":16498,"event":"mousemove"},{"x":801,"y":271,"t":16514,"event":"mousemove"},{"x":794,"y":263,"t":16531,"event":"mousemove"},{"x":790,"y":261,"t":16547,"event":"mousemove"},{"x":789,"y":259,"t":16564,"event":"mousemove"}],"mouse_tracking_targets":{},"correct":true},{"rt":890,"stimulus":"<p>How confident are you about your choice ? (click on the bar)</p>","slider_start":50,"response":86,"trial_type":"html-slider-response","trial_index":101,"time_elapsed":272953,"internal_node_id":"0.0-33.0-2.0"},{"rt":null,"stimulus":"\n        <div id='jspsych-image' style='position: relative; width: min(80vw, 80vh); height: min(80vw, 80vh);'>\n                \n                <div style='position: absolute; top: 40%; left: 30%; bottom: 40%; right: 30%;'><h1 style='font-size: 60px; color: green;'>Correct!</h1></div>\n                \n                <div class='jspsych-image' id='jspsych-image-0' data-choice='0' style='top: 0;     left: 0;'><img style=\"width: 100%; height: 100%;\" src='../static/human_exp_images/task_flip_contact_1/00_3.png' class='correct-choice'></img></div>\n                <div class='jspsych-image' id='jspsych-image-1' data-choice='1' style='top: 0;     right: 0;'><img style=\"width: 100%; height: 100%;\" src='../static/human_exp_images/task_flip_contact_1/00_1.png' class=''></img></div>\n                <div class='jspsych-image' id='jspsych-image-2' data-choice='2' style='bottom: 0;  left: 0;'><img style=\"width: 100%; height: 100%;\" src='../static/human_exp_images/task_flip_contact_1/00_0.png' class=''></img></div>\n                <div class='jspsych-image' id='jspsych-image-3' data-choice='3' style='bottom: 0;  right: 0;'><img style=\"width: 100%; height: 100%;\" src='../static/human_exp_images/task_flip_contact_1/00_2.png' class=''></img></div>\n\n        </div>","response":null,"trial_type":"html-keyboard-response","trial_index":102,"time_elapsed":274457,"internal_node_id":"0.0-33.0-3.0"},{"rt":null,"trial_type":"image-click","trial_index":103,"time_elapsed":274959,"internal_node_id":"0.0-33.0-0.1"},{"rt":7018,"response":1,"all_choices":["../static/human_exp_images/task_flip_contact_1/01_2.png","../static/human_exp_images/task_flip_contact_1/01_3.png","../static/human_exp_images/task_flip_contact_1/01_0.png","../static/human_exp_images/task_flip_contact_1/01_1.png"],"task":"response","correct_response":1,"shuffled_array":[2,3,0,1],"catch_trial":false,"trial_type":"image-click","trial_index":104,"time_elapsed":281980,"internal_node_id":"0.0-33.0-1.1","mouse_tracking_data":[{"x":1010,"y":469,"t":1,"event":"mousemove"},{"x":961,"y":459,"t":14,"event":"mousemove"},{"x":934,"y":456,"t":31,"event":"mousemove"},{"x":916,"y":454,"t":47,"event":"mousemove"},{"x":909,"y":452,"t":64,"event":"mousemove"},{"x":906,"y":452,"t":81,"event":"mousemove"},{"x":906,"y":450,"t":190,"event":"mousemove"},{"x":906,"y":448,"t":215,"event":"mousemove"},{"x":906,"y":447,"t":242,"event":"mousemove"},{"x":908,"y":447,"t":297,"event":"mousemove"},{"x":909,"y":447,"t":315,"event":"mousemove"},{"x":911,"y":447,"t":331,"event":"mousemove"},{"x":913,"y":447,"t":348,"event":"mousemove"},{"x":915,"y":447,"t":398,"event":"mousemove"},{"x":915,"y":445,"t":710,"event":"mousemove"},{"x":916,"y":445,"t":835,"event":"mousemove"},{"x":918,"y":445,"t":1479,"event":"mousemove"},{"x":918,"y":443,"t":1766,"event":"mousemove"},{"x":919,"y":443,"t":2175,"event":"mousemove"},{"x":919,"y":442,"t":2487,"event":"mousemove"},{"x":919,"y":441,"t":3136,"event":"mousemove"},{"x":921,"y":439,"t":6140,"event":"mousemove"},{"x":923,"y":437,"t":6158,"event":"mousemove"},{"x":924,"y":436,"t":6186,"event":"mousemove"},{"x":929,"y":432,"t":6200,"event":"mousemove"},{"x":949,"y":416,"t":6218,"event":"mousemove"},{"x":995,"y":380,"t":6233,"event":"mousemove"},{"x":1089,"y":308,"t":6252,"event":"mousemove"},{"x":1221,"y":211,"t":6268,"event":"mousemove"},{"x":1286,"y":169,"t":6284,"event":"mousemove"},{"x":1369,"y":110,"t":6302,"event":"mousemove"},{"x":1395,"y":94,"t":6318,"event":"mousemove"},{"x":1400,"y":91,"t":6334,"event":"mousemove"},{"x":1398,"y":91,"t":6599,"event":"mousemove"},{"x":1393,"y":91,"t":6604,"event":"mousemove"},{"x":1385,"y":91,"t":6617,"event":"mousemove"},{"x":1343,"y":120,"t":6635,"event":"mousemove"},{"x":1316,"y":140,"t":6652,"event":"mousemove"},{"x":1299,"y":152,"t":6668,"event":"mousemove"},{"x":1283,"y":163,"t":6684,"event":"mousemove"},{"x":1278,"y":168,"t":6701,"event":"mousemove"},{"x":1273,"y":172,"t":6718,"event":"mousemove"},{"x":1263,"y":182,"t":6734,"event":"mousemove"},{"x":1256,"y":185,"t":6751,"event":"mousemove"},{"x":1253,"y":187,"t":6767,"event":"mousemove"},{"x":1253,"y":189,"t":6785,"event":"mousemove"}],"mouse_tracking_targets":{},"correct":true},{"rt":1252,"stimulus":"<p>How confident are you about your choice ? (click on the bar)</p>","slider_start":50,"response":94,"trial_type":"html-slider-response","trial_index":105,"time_elapsed":283235,"internal_node_id":"0.0-33.0-2.1"},{"rt":null,"stimulus":"\n        <div id='jspsych-image' style='position: relative; width: min(80vw, 80vh); height: min(80vw, 80vh);'>\n                \n                <div style='position: absolute; top: 40%; left: 30%; bottom: 40%; right: 30%;'><h1 style='font-size: 60px; color: green;'>Correct!</h1></div>\n                \n                <div class='jspsych-image' id='jspsych-image-0' data-choice='0' style='top: 0;     left: 0;'><img style=\"width: 100%; height: 100%;\" src='../static/human_exp_images/task_flip_contact_1/01_2.png' class=''></img></div>\n                <div class='jspsych-image' id='jspsych-image-1' data-choice='1' style='top: 0;     right: 0;'><img style=\"width: 100%; height: 100%;\" src='../static/human_exp_images/task_flip_contact_1/01_3.png' class='correct-choice'></img></div>\n                <div class='jspsych-image' id='jspsych-image-2' data-choice='2' style='bottom: 0;  left: 0;'><img style=\"width: 100%; height: 100%;\" src='../static/human_exp_images/task_flip_contact_1/01_0.png' class=''></img></div>\n                <div class='jspsych-image' id='jspsych-image-3' data-choice='3' style='bottom: 0;  right: 0;'><img style=\"width: 100%; height: 100%;\" src='../static/human_exp_images/task_flip_contact_1/01_1.png' class=''></img></div>\n\n        </div>","response":null,"trial_type":"html-keyboard-response","trial_index":106,"time_elapsed":284739,"internal_node_id":"0.0-33.0-3.1"},{"rt":null,"trial_type":"image-click","trial_index":107,"time_elapsed":285398,"internal_node_id":"0.0-33.0-0.2"},{"rt":5170,"response":3,"all_choices":["../static/human_exp_images/task_flip_contact_1/02_2.png","../static/human_exp_images/task_flip_contact_1/02_1.png","../static/human_exp_images/task_flip_contact_1/02_0.png","../static/human_exp_images/task_flip_contact_1/02_3.png"],"task":"response","correct_response":3,"shuffled_array":[2,1,0,3],"catch_trial":false,"trial_type":"image-click","trial_index":108,"time_elapsed":290571,"internal_node_id":"0.0-33.0-1.2","mouse_tracking_data":[{"x":1026,"y":451,"t":3,"event":"mousemove"},{"x":1000,"y":451,"t":13,"event":"mousemove"},{"x":983,"y":448,"t":30,"event":"mousemove"},{"x":976,"y":448,"t":46,"event":"mousemove"},{"x":967,"y":448,"t":63,"event":"mousemove"},{"x":964,"y":448,"t":79,"event":"mousemove"},{"x":964,"y":447,"t":186,"event":"mousemove"},{"x":964,"y":445,"t":268,"event":"mousemove"},{"x":964,"y":443,"t":286,"event":"mousemove"},{"x":964,"y":442,"t":322,"event":"mousemove"},{"x":965,"y":442,"t":387,"event":"mousemove"},{"x":967,"y":442,"t":396,"event":"mousemove"},{"x":969,"y":442,"t":423,"event":"mousemove"},{"x":971,"y":442,"t":440,"event":"mousemove"},{"x":972,"y":442,"t":458,"event":"mousemove"},{"x":974,"y":442,"t":476,"event":"mousemove"},{"x":976,"y":442,"t":487,"event":"mousemove"},{"x":977,"y":442,"t":513,"event":"mousemove"},{"x":979,"y":442,"t":531,"event":"mousemove"},{"x":981,"y":442,"t":549,"event":"mousemove"},{"x":983,"y":442,"t":575,"event":"mousemove"},{"x":984,"y":442,"t":603,"event":"mousemove"},{"x":986,"y":442,"t":749,"event":"mousemove"},{"x":988,"y":442,"t":784,"event":"mousemove"},{"x":989,"y":442,"t":1421,"event":"mousemove"},{"x":989,"y":440,"t":2408,"event":"mousemove"},{"x":991,"y":439,"t":4399,"event":"mousemove"},{"x":992,"y":439,"t":4672,"event":"mousemove"},{"x":994,"y":439,"t":4682,"event":"mousemove"},{"x":1004,"y":439,"t":4699,"event":"mousemove"},{"x":1011,"y":446,"t":4715,"event":"mousemove"},{"x":1020,"y":459,"t":4732,"event":"mousemove"},{"x":1027,"y":468,"t":4749,"event":"mousemove"},{"x":1035,"y":481,"t":4765,"event":"mousemove"},{"x":1042,"y":493,"t":4783,"event":"mousemove"},{"x":1047,"y":504,"t":4798,"event":"mousemove"},{"x":1054,"y":514,"t":4816,"event":"mousemove"},{"x":1061,"y":524,"t":4832,"event":"mousemove"},{"x":1068,"y":536,"t":4849,"event":"mousemove"},{"x":1071,"y":543,"t":4865,"event":"mousemove"},{"x":1076,"y":553,"t":4882,"event":"mousemove"},{"x":1079,"y":560,"t":4899,"event":"mousemove"},{"x":1085,"y":565,"t":4916,"event":"mousemove"},{"x":1088,"y":572,"t":4933,"event":"mousemove"},{"x":1090,"y":575,"t":4948,"event":"mousemove"},{"x":1093,"y":584,"t":4966,"event":"mousemove"},{"x":1098,"y":591,"t":4982,"event":"mousemove"},{"x":1102,"y":597,"t":4999,"event":"mousemove"},{"x":1105,"y":603,"t":5015,"event":"mousemove"},{"x":1108,"y":606,"t":5032,"event":"mousemove"},{"x":1110,"y":609,"t":5050,"event":"mousemove"},{"x":1112,"y":611,"t":5066,"event":"mousemove"},{"x":1112,"y":613,"t":5082,"event":"mousemove"}],"mouse_tracking_targets":{},"correct":true},{"rt":1131,"stimulus":"<p>How confident are you about your choice ? (click on the bar)</p>","slider_start":50,"response":94,"trial_type":"html-slider-response","trial_index":109,"time_elapsed":291704,"internal_node_id":"0.0-33.0-2.2"},{"rt":null,"stimulus":"\n        <div id='jspsych-image' style='position: relative; width: min(80vw, 80vh); height: min(80vw, 80vh);'>\n                \n                <div style='position: absolute; top: 40%; left: 30%; bottom: 40%; right: 30%;'><h1 style='font-size: 60px; color: green;'>Correct!</h1></div>\n                \n                <div class='jspsych-image' id='jspsych-image-0' data-choice='0' style='top: 0;     left: 0;'><img style=\"width: 100%; height: 100%;\" src='../static/human_exp_images/task_flip_contact_1/02_2.png' class=''></img></div>\n                <div class='jspsych-image' id='jspsych-image-1' data-choice='1' style='top: 0;     right: 0;'><img style=\"width: 100%; height: 100%;\" src='../static/human_exp_images/task_flip_contact_1/02_1.png' class=''></img></div>\n                <div class='jspsych-image' id='jspsych-image-2' data-choice='2' style='bottom: 0;  left: 0;'><img style=\"width: 100%; height: 100%;\" src='../static/human_exp_images/task_flip_contact_1/02_0.png' class=''></img></div>\n                <div class='jspsych-image' id='jspsych-image-3' data-choice='3' style='bottom: 0;  right: 0;'><img style=\"width: 100%; height: 100%;\" src='../static/human_exp_images/task_flip_contact_1/02_3.png' class='correct-choice'></img></div>\n\n        </div>","response":null,"trial_type":"html-keyboard-response","trial_index":110,"time_elapsed":293208,"internal_node_id":"0.0-33.0-3.2"},{"rt":1521,"response":{"Q0":""},"trial_type":"survey-text","trial_index":111,"time_elapsed":294734,"internal_node_id":"0.0-34.0"},{"rt":null,"stimulus":"<h1 style='font-size: 60px'>Block End</h1>","response":null,"trial_type":"html-keyboard-response","trial_index":112,"time_elapsed":295242,"internal_node_id":"0.0-35.0"},{"rt":1456,"stimulus":"<p>You responded correctly on 86% of the trials.</p>\n    <p>Your average response time was 7637ms.</p>\n    <p>Press any key to complete the experiment. Thank you!</p>","response":" ","trial_type":"html-keyboard-response","trial_index":113,"time_elapsed":296700,"internal_node_id":"0.0-36.0","interactions":"[]"}]