[{"success":true,"timeout":false,"failed_images":[],"failed_audio":[],"failed_video":[],"trial_type":"preload","trial_index":0,"time_elapsed":115,"internal_node_id":"0.0-0.0"},{"rt":1189,"stimulus":"<p style='font-size: 40px'>Welcome to the experiment.</p><p style='font-size: 30px'>Press any key to begin.</p>","response":" ","trial_type":"html-keyboard-response","trial_index":1,"time_elapsed":1304,"internal_node_id":"0.0-1.0"},{"rt":282,"stimulus":"\n    <p>In this experiment, 4 images will appear on the screen. 3 out of 4 images were generated with a certain rule while one image (the odd one out) does not respect this rule. Select the odd one out by clicking on the image.</p>\n    <p>Following your choice, you will be asked to rate how confident you were about your choice on a scale from 1 to 100. Then, you will receive feedback on the trial.</p>\n    <p>For each rule you will perform 20 trials. You will be notified at each rule change. </p>\n    <p> Press any button to continue </p>\n    <div style='margin: auto; position: relative; width: 400px; height: 400px;'>\n        <div style='position: absolute; top: 0;     left: 0; '><img src='../static/img/square.png'></img></div>\n        <div style='position: absolute; top: 0;     right: 0;'><img src='../static/img/square.png'></img></div>\n        <div style='position: absolute; bottom: 0;  left: 0; '><img src='../static/img/square.png'></img></div>\n        <div style='position: absolute; bottom: 0;  right: 0;'><img src='../static/img/square.png'></img></div>\n    </div>\n","response":" ","trial_type":"html-keyboard-response","trial_index":2,"time_elapsed":1589,"internal_node_id":"0.0-2.0"},{"rt":853,"stimulus":"<h1 style='font-size: 60px'>New Rule!</h1> <p>Press any key to begin.</p>","response":" ","trial_type":"html-keyboard-response","trial_index":3,"time_elapsed":4443,"internal_node_id":"0.0-3.0"},{"rt":1648,"response":0,"all_choices":["../static/human_exp_images/task_color/00_2.png","../static/human_exp_images/task_color/00_1.png","../static/human_exp_images/task_color/00_0.png","../static/human_exp_images/task_color/00_3.png"],"task":"response","correct_response":3,"shuffled_array":[2,1,0,3],"trial_type":"image-click","trial_index":4,"time_elapsed":6097,"internal_node_id":"0.0-4.0-0.0","mouse_tracking_data":[{"x":909,"y":468,"t":992,"event":"mousemove"},{"x":909,"y":466,"t":993,"event":"mousemove"},{"x":909,"y":462,"t":1009,"event":"mousemove"},{"x":909,"y":459,"t":1027,"event":"mousemove"},{"x":909,"y":457,"t":1043,"event":"mousemove"},{"x":907,"y":456,"t":1060,"event":"mousemove"},{"x":904,"y":451,"t":1076,"event":"mousemove"},{"x":900,"y":444,"t":1093,"event":"mousemove"},{"x":891,"y":435,"t":1109,"event":"mousemove"},{"x":888,"y":428,"t":1126,"event":"mousemove"},{"x":880,"y":418,"t":1144,"event":"mousemove"},{"x":871,"y":408,"t":1160,"event":"mousemove"},{"x":861,"y":398,"t":1177,"event":"mousemove"},{"x":852,"y":389,"t":1193,"event":"mousemove"},{"x":845,"y":380,"t":1210,"event":"mousemove"},{"x":836,"y":370,"t":1226,"event":"mousemove"},{"x":829,"y":358,"t":1244,"event":"mousemove"},{"x":820,"y":347,"t":1259,"event":"mousemove"},{"x":807,"y":329,"t":1276,"event":"mousemove"},{"x":795,"y":310,"t":1293,"event":"mousemove"},{"x":786,"y":296,"t":1310,"event":"mousemove"},{"x":779,"y":284,"t":1326,"event":"mousemove"},{"x":777,"y":280,"t":1343,"event":"mousemove"},{"x":773,"y":271,"t":1361,"event":"mousemove"},{"x":768,"y":263,"t":1377,"event":"mousemove"},{"x":762,"y":254,"t":1394,"event":"mousemove"},{"x":754,"y":245,"t":1409,"event":"mousemove"},{"x":746,"y":240,"t":1427,"event":"mousemove"},{"x":742,"y":236,"t":1443,"event":"mousemove"},{"x":737,"y":227,"t":1460,"event":"mousemove"},{"x":732,"y":221,"t":1476,"event":"mousemove"},{"x":726,"y":215,"t":1494,"event":"mousemove"},{"x":721,"y":209,"t":1510,"event":"mousemove"},{"x":713,"y":198,"t":1527,"event":"mousemove"},{"x":709,"y":192,"t":1543,"event":"mousemove"},{"x":700,"y":181,"t":1560,"event":"mousemove"},{"x":696,"y":172,"t":1577,"event":"mousemove"},{"x":693,"y":168,"t":1593,"event":"mousemove"},{"x":693,"y":167,"t":1610,"event":"mousemove"}],"mouse_tracking_targets":{},"correct":false},{"rt":1078,"stimulus":"<p>How different confident are you about your choice ?</p>","slider_start":50,"response":50,"trial_type":"html-slider-response","trial_index":5,"time_elapsed":7177,"internal_node_id":"0.0-4.0-1.0"},{"rt":null,"stimulus":"\n        <div id='jspsych-image' style='position: relative; width: min(80vw, 80vh); height: min(80vw, 80vh);'>\n                \n                <div style='position: absolute; top: 40%; left: 30%; bottom: 40%; right: 30%;'><h1 style='font-size: 60px; color: red'>Wrong</h1></div>\n                \n                <div class='jspsych-image' id='jspsych-image-0' data-choice='0' style='top: 0;     left: 0;'><img style=\"max-width: 100%; max-height: 100%;\" src='../static/human_exp_images/task_color/00_2.png' class='wrong-choice'></img></div>\n                <div class='jspsych-image' id='jspsych-image-1' data-choice='1' style='top: 0;     right: 0;'><img style=\"max-width: 100%; max-height: 100%;\" src='../static/human_exp_images/task_color/00_1.png' class=''></img></div>\n                <div class='jspsych-image' id='jspsych-image-2' data-choice='2' style='bottom: 0;  left: 0;'><img style=\"max-width: 100%; max-height: 100%;\" src='../static/human_exp_images/task_color/00_0.png' class=''></img></div>\n                <div class='jspsych-image' id='jspsych-image-3' data-choice='3' style='bottom: 0;  right: 0;'><img style=\"max-width: 100%; max-height: 100%;\" src='../static/human_exp_images/task_color/00_3.png' class='correct-choice'></img></div>\n\n        </div>","response":null,"trial_type":"html-keyboard-response","trial_index":6,"time_elapsed":9683,"internal_node_id":"0.0-4.0-2.0"}]