[{"success":true,"timeout":false,"failed_images":[],"failed_audio":[],"failed_video":[],"trial_type":"preload","trial_index":0,"time_elapsed":332,"internal_node_id":"0.0-0.0"},{"rt":12560,"stimulus":"<p style='font-size: 40px'>Welcome to the experiment.</p><p style='font-size: 30px'>Press any key to begin.</p>","response":" ","trial_type":"html-keyboard-response","trial_index":1,"time_elapsed":12894,"internal_node_id":"0.0-1.0"},{"rt":8985,"stimulus":"\n    <p>In this experiment, 4 images will appear on the screen. 3 out of 4 images were generated with a certain rule while one image (the odd one out) does not respect this rule. Select the odd one out by clicking on the image.</p>\n    <p>Following your choice, you will be asked to rate how confident you were about your choice on a scale from 1 to 100. Then, you will receive feedback on the trial.</p>\n    <p>For each rule you will perform 20 trials. You will be notified at each rule change. </p>\n    <p> Press any button to continue </p>\n    <div style='margin: auto; position: relative; width: 400px; height: 400px;'>\n        <div style='position: absolute; top: 0;     left: 0; '><img src='../static/img/square.png'></img></div>\n        <div style='position: absolute; top: 0;     right: 0;'><img src='../static/img/square.png'></img></div>\n        <div style='position: absolute; bottom: 0;  left: 0; '><img src='../static/img/square.png'></img></div>\n        <div style='position: absolute; bottom: 0;  right: 0;'><img src='../static/img/square.png'></img></div>\n    </div>\n","response":" ","trial_type":"html-keyboard-response","trial_index":2,"time_elapsed":21881,"internal_node_id":"0.0-2.0"},{"rt":296,"stimulus":"<h1 style='font-size: 60px'>New Rule!</h1> <p>Press any key to begin.</p>","response":" ","trial_type":"html-keyboard-response","trial_index":3,"time_elapsed":24179,"internal_node_id":"0.0-3.0"},{"rt":2169,"response":0,"all_choices":["../static/human_exp_images/task_size/00_3.png","../static/human_exp_images/task_size/00_2.png","../static/human_exp_images/task_size/00_1.png","../static/human_exp_images/task_size/00_0.png"],"task":"response","correct_response":0,"shuffled_array":[3,2,1,0],"trial_type":"image-click","trial_index":4,"time_elapsed":26359,"internal_node_id":"0.0-4.0-0.0","mouse_tracking_data":[{"x":787,"y":374,"t":655,"event":"mousemove"},{"x":787,"y":376,"t":662,"event":"mousemove"},{"x":787,"y":377,"t":672,"event":"mousemove"},{"x":786,"y":377,"t":681,"event":"mousemove"},{"x":783,"y":377,"t":689,"event":"mousemove"},{"x":781,"y":377,"t":691,"event":"mousemove"},{"x":775,"y":379,"t":707,"event":"mousemove"},{"x":757,"y":383,"t":724,"event":"mousemove"},{"x":733,"y":383,"t":740,"event":"mousemove"},{"x":699,"y":383,"t":757,"event":"mousemove"},{"x":644,"y":383,"t":775,"event":"mousemove"},{"x":588,"y":375,"t":790,"event":"mousemove"},{"x":543,"y":356,"t":808,"event":"mousemove"},{"x":517,"y":344,"t":824,"event":"mousemove"},{"x":497,"y":338,"t":841,"event":"mousemove"},{"x":490,"y":335,"t":857,"event":"mousemove"},{"x":483,"y":332,"t":874,"event":"mousemove"},{"x":472,"y":327,"t":890,"event":"mousemove"},{"x":461,"y":325,"t":907,"event":"mousemove"},{"x":453,"y":320,"t":924,"event":"mousemove"},{"x":441,"y":315,"t":941,"event":"mousemove"},{"x":428,"y":309,"t":958,"event":"mousemove"},{"x":419,"y":304,"t":974,"event":"mousemove"},{"x":408,"y":294,"t":991,"event":"mousemove"},{"x":400,"y":287,"t":1007,"event":"mousemove"},{"x":391,"y":274,"t":1024,"event":"mousemove"},{"x":382,"y":265,"t":1041,"event":"mousemove"},{"x":380,"y":257,"t":1057,"event":"mousemove"},{"x":377,"y":252,"t":1074,"event":"mousemove"},{"x":375,"y":252,"t":1091,"event":"mousemove"},{"x":375,"y":251,"t":1107,"event":"mousemove"},{"x":367,"y":243,"t":1124,"event":"mousemove"},{"x":358,"y":233,"t":1141,"event":"mousemove"},{"x":351,"y":226,"t":1157,"event":"mousemove"},{"x":347,"y":221,"t":1174,"event":"mousemove"},{"x":345,"y":217,"t":1191,"event":"mousemove"},{"x":343,"y":217,"t":1208,"event":"mousemove"},{"x":343,"y":216,"t":1225,"event":"mousemove"},{"x":342,"y":216,"t":1241,"event":"mousemove"},{"x":342,"y":215,"t":1258,"event":"mousemove"},{"x":342,"y":213,"t":1309,"event":"mousemove"},{"x":342,"y":212,"t":1364,"event":"mousemove"},{"x":340,"y":212,"t":1428,"event":"mousemove"},{"x":340,"y":210,"t":1437,"event":"mousemove"},{"x":338,"y":208,"t":1446,"event":"mousemove"},{"x":338,"y":206,"t":1447,"event":"mousemove"},{"x":337,"y":205,"t":1464,"event":"mousemove"},{"x":331,"y":197,"t":1480,"event":"mousemove"},{"x":327,"y":193,"t":1497,"event":"mousemove"},{"x":323,"y":188,"t":1514,"event":"mousemove"},{"x":321,"y":184,"t":1530,"event":"mousemove"},{"x":320,"y":183,"t":1548,"event":"mousemove"},{"x":318,"y":182,"t":1565,"event":"mousemove"},{"x":316,"y":182,"t":1583,"event":"mousemove"},{"x":316,"y":180,"t":1592,"event":"mousemove"},{"x":315,"y":180,"t":1619,"event":"mousemove"},{"x":314,"y":180,"t":1712,"event":"mousemove"}],"mouse_tracking_targets":{},"correct":true}]