[{"success":true,"timeout":false,"failed_images":[],"failed_audio":[],"failed_video":[],"trial_type":"preload","trial_index":0,"time_elapsed":118,"internal_node_id":"0.0-0.0"},{"rt":984,"stimulus":"<p style='font-size: 40px'>Welcome to the experiment.</p><p style='font-size: 30px'>Press any key to begin.</p>","response":" ","trial_type":"html-keyboard-response","trial_index":1,"time_elapsed":1103,"internal_node_id":"0.0-1.0"},{"rt":824,"stimulus":"\n    <p>In this experiment, 4 images will appear on the screen. 3 out of 4 images were generated with a certain rule while one image (the odd one out) does not respect this rule. Select the odd one out by clicking on the image.</p>\n    <p>Following your choice, you will be asked to rate how confident you were about your choice on a scale from 1 to 100. Then, you will receive feedback on the trial.</p>\n    <p>For each rule you will perform 20 trials. You will be notified at each rule change. </p>\n    <p> Press any button to continue </p>\n    <div style='margin: auto; position: relative; width: 400px; height: 400px;'>\n        <div style='position: absolute; top: 0;     left: 0; '><img src='../static/img/square.png'></img></div>\n        <div style='position: absolute; top: 0;     right: 0;'><img src='../static/img/square.png'></img></div>\n        <div style='position: absolute; bottom: 0;  left: 0; '><img src='../static/img/square.png'></img></div>\n        <div style='position: absolute; bottom: 0;  right: 0;'><img src='../static/img/square.png'></img></div>\n    </div>\n","response":" ","trial_type":"html-keyboard-response","trial_index":2,"time_elapsed":1931,"internal_node_id":"0.0-2.0"},{"rt":757,"stimulus":"<h1 style='font-size: 60px'>New Rule!</h1> <p>Press any key to begin.</p>","response":" ","trial_type":"html-keyboard-response","trial_index":3,"time_elapsed":4690,"internal_node_id":"0.0-3.0"},{"rt":1659,"response":3,"all_choices":["../static/human_exp_images/task_color/00_2.png","../static/human_exp_images/task_color/00_1.png","../static/human_exp_images/task_color/00_0.png","../static/human_exp_images/task_color/00_3.png"],"task":"response","correct_response":3,"shuffled_array":[2,1,0,3],"trial_type":"image-click","trial_index":4,"time_elapsed":6355,"internal_node_id":"0.0-4.0-0.0","mouse_tracking_data":[{"x":990,"y":402,"t":1024,"event":"mousemove"},{"x":990,"y":393,"t":1041,"event":"mousemove"},{"x":990,"y":390,"t":1058,"event":"mousemove"},{"x":996,"y":382,"t":1074,"event":"mousemove"},{"x":1003,"y":379,"t":1091,"event":"mousemove"},{"x":1009,"y":377,"t":1107,"event":"mousemove"},{"x":1012,"y":374,"t":1124,"event":"mousemove"},{"x":1017,"y":374,"t":1141,"event":"mousemove"},{"x":1020,"y":372,"t":1158,"event":"mousemove"},{"x":1022,"y":372,"t":1175,"event":"mousemove"},{"x":1028,"y":372,"t":1190,"event":"mousemove"},{"x":1033,"y":372,"t":1207,"event":"mousemove"},{"x":1038,"y":377,"t":1224,"event":"mousemove"},{"x":1040,"y":388,"t":1241,"event":"mousemove"},{"x":1042,"y":401,"t":1258,"event":"mousemove"},{"x":1042,"y":411,"t":1274,"event":"mousemove"},{"x":1045,"y":426,"t":1291,"event":"mousemove"},{"x":1050,"y":440,"t":1307,"event":"mousemove"},{"x":1054,"y":457,"t":1324,"event":"mousemove"},{"x":1060,"y":471,"t":1340,"event":"mousemove"},{"x":1062,"y":483,"t":1358,"event":"mousemove"},{"x":1066,"y":498,"t":1375,"event":"mousemove"},{"x":1071,"y":510,"t":1390,"event":"mousemove"},{"x":1073,"y":520,"t":1408,"event":"mousemove"},{"x":1078,"y":529,"t":1424,"event":"mousemove"},{"x":1082,"y":542,"t":1441,"event":"mousemove"},{"x":1084,"y":549,"t":1458,"event":"mousemove"},{"x":1086,"y":554,"t":1474,"event":"mousemove"},{"x":1086,"y":562,"t":1492,"event":"mousemove"},{"x":1088,"y":568,"t":1507,"event":"mousemove"},{"x":1088,"y":574,"t":1525,"event":"mousemove"},{"x":1089,"y":580,"t":1541,"event":"mousemove"},{"x":1089,"y":582,"t":1558,"event":"mousemove"},{"x":1089,"y":587,"t":1574,"event":"mousemove"},{"x":1089,"y":589,"t":1591,"event":"mousemove"}],"mouse_tracking_targets":{},"correct":true},{"rt":3063,"stimulus":"<p>How different confident are you about your choice ?</p>","slider_start":50,"response":75,"trial_type":"html-slider-response","trial_index":5,"time_elapsed":9421,"internal_node_id":"0.0-4.0-1.0"},{"rt":null,"stimulus":"\n        <div id='jspsych-image' style='position: relative; width: min(80vw, 80vh); height: min(80vw, 80vh);'>\n                \n                <div style='position: absolute; top: 40%; left: 30%; bottom: 40%; right: 30%;'><h1 style='font-size: 60px; color: green;'>Correct!</h1></div>\n                \n                <div class='jspsych-image' id='jspsych-image-0' data-choice='0' style='top: 0;     left: 0;'><img style=\"max-width: 100%; max-height: 100%;\" src='../static/human_exp_images/task_color/00_2.png' class=''></img></div>\n                <div class='jspsych-image' id='jspsych-image-1' data-choice='1' style='top: 0;     right: 0;'><img style=\"max-width: 100%; max-height: 100%;\" src='../static/human_exp_images/task_color/00_1.png' class=''></img></div>\n                <div class='jspsych-image' id='jspsych-image-2' data-choice='2' style='bottom: 0;  left: 0;'><img style=\"max-width: 100%; max-height: 100%;\" src='../static/human_exp_images/task_color/00_0.png' class=''></img></div>\n                <div class='jspsych-image' id='jspsych-image-3' data-choice='3' style='bottom: 0;  right: 0;'><img style=\"max-width: 100%; max-height: 100%;\" src='../static/human_exp_images/task_color/00_3.png' class='correct-choice'></img></div>\n\n        </div>","response":null,"trial_type":"html-keyboard-response","trial_index":6,"time_elapsed":10927,"internal_node_id":"0.0-4.0-2.0"},{"rt":3496,"response":1,"all_choices":["../static/human_exp_images/task_color/01_0.png","../static/human_exp_images/task_color/01_3.png","../static/human_exp_images/task_color/01_1.png","../static/human_exp_images/task_color/01_2.png"],"task":"response","correct_response":1,"shuffled_array":[0,3,1,2],"trial_type":"image-click","trial_index":7,"time_elapsed":14427,"internal_node_id":"0.0-4.0-0.1","mouse_tracking_data":[{"x":889,"y":548,"t":1981,"event":"mousemove"},{"x":891,"y":548,"t":1992,"event":"mousemove"},{"x":893,"y":548,"t":2008,"event":"mousemove"},{"x":893,"y":546,"t":2053,"event":"mousemove"},{"x":893,"y":545,"t":2059,"event":"mousemove"},{"x":893,"y":535,"t":2075,"event":"mousemove"},{"x":883,"y":522,"t":2091,"event":"mousemove"},{"x":874,"y":501,"t":2108,"event":"mousemove"},{"x":865,"y":486,"t":2125,"event":"mousemove"},{"x":856,"y":473,"t":2142,"event":"mousemove"},{"x":847,"y":453,"t":2158,"event":"mousemove"},{"x":832,"y":419,"t":2174,"event":"mousemove"},{"x":815,"y":378,"t":2192,"event":"mousemove"},{"x":803,"y":352,"t":2208,"event":"mousemove"},{"x":789,"y":322,"t":2225,"event":"mousemove"},{"x":781,"y":307,"t":2241,"event":"mousemove"},{"x":776,"y":298,"t":2259,"event":"mousemove"},{"x":764,"y":285,"t":2275,"event":"mousemove"},{"x":753,"y":280,"t":2291,"event":"mousemove"},{"x":735,"y":278,"t":2309,"event":"mousemove"},{"x":713,"y":278,"t":2325,"event":"mousemove"},{"x":675,"y":278,"t":2342,"event":"mousemove"},{"x":654,"y":278,"t":2359,"event":"mousemove"},{"x":627,"y":291,"t":2376,"event":"mousemove"},{"x":608,"y":302,"t":2392,"event":"mousemove"},{"x":601,"y":308,"t":2409,"event":"mousemove"},{"x":597,"y":314,"t":2426,"event":"mousemove"},{"x":595,"y":322,"t":2443,"event":"mousemove"},{"x":595,"y":327,"t":2459,"event":"mousemove"},{"x":596,"y":327,"t":3034,"event":"mousemove"},{"x":600,"y":328,"t":3042,"event":"mousemove"},{"x":602,"y":330,"t":3059,"event":"mousemove"},{"x":602,"y":333,"t":3076,"event":"mousemove"},{"x":604,"y":333,"t":3124,"event":"mousemove"},{"x":606,"y":333,"t":3126,"event":"mousemove"},{"x":609,"y":333,"t":3141,"event":"mousemove"},{"x":613,"y":330,"t":3159,"event":"mousemove"},{"x":618,"y":314,"t":3175,"event":"mousemove"},{"x":624,"y":298,"t":3193,"event":"mousemove"},{"x":629,"y":287,"t":3210,"event":"mousemove"},{"x":633,"y":275,"t":3226,"event":"mousemove"},{"x":638,"y":267,"t":3243,"event":"mousemove"},{"x":642,"y":259,"t":3259,"event":"mousemove"},{"x":650,"y":247,"t":3276,"event":"mousemove"},{"x":655,"y":236,"t":3292,"event":"mousemove"},{"x":659,"y":227,"t":3310,"event":"mousemove"},{"x":662,"y":221,"t":3326,"event":"mousemove"},{"x":666,"y":216,"t":3342,"event":"mousemove"},{"x":666,"y":215,"t":3359,"event":"mousemove"}],"mouse_tracking_targets":{},"correct":true},{"rt":1955,"stimulus":"<p>How different confident are you about your choice ?</p>","slider_start":50,"response":71,"trial_type":"html-slider-response","trial_index":8,"time_elapsed":16386,"internal_node_id":"0.0-4.0-1.1"},{"rt":null,"stimulus":"\n        <div id='jspsych-image' style='position: relative; width: min(80vw, 80vh); height: min(80vw, 80vh);'>\n                \n                <div style='position: absolute; top: 40%; left: 30%; bottom: 40%; right: 30%;'><h1 style='font-size: 60px; color: green;'>Correct!</h1></div>\n                \n                <div class='jspsych-image' id='jspsych-image-0' data-choice='0' style='top: 0;     left: 0;'><img style=\"max-width: 100%; max-height: 100%;\" src='../static/human_exp_images/task_color/01_0.png' class=''></img></div>\n                <div class='jspsych-image' id='jspsych-image-1' data-choice='1' style='top: 0;     right: 0;'><img style=\"max-width: 100%; max-height: 100%;\" src='../static/human_exp_images/task_color/01_3.png' class='correct-choice'></img></div>\n                <div class='jspsych-image' id='jspsych-image-2' data-choice='2' style='bottom: 0;  left: 0;'><img style=\"max-width: 100%; max-height: 100%;\" src='../static/human_exp_images/task_color/01_1.png' class=''></img></div>\n                <div class='jspsych-image' id='jspsych-image-3' data-choice='3' style='bottom: 0;  right: 0;'><img style=\"max-width: 100%; max-height: 100%;\" src='../static/human_exp_images/task_color/01_2.png' class=''></img></div>\n\n        </div>","response":null,"trial_type":"html-keyboard-response","trial_index":9,"time_elapsed":17887,"internal_node_id":"0.0-4.0-2.1"},{"rt":1385,"response":3,"all_choices":["../static/human_exp_images/task_color/02_1.png","../static/human_exp_images/task_color/02_0.png","../static/human_exp_images/task_color/02_2.png","../static/human_exp_images/task_color/02_3.png"],"task":"response","correct_response":3,"shuffled_array":[1,0,2,3],"trial_type":"image-click","trial_index":10,"time_elapsed":19277,"internal_node_id":"0.0-4.0-0.2","mouse_tracking_data":[{"x":488,"y":573,"t":913,"event":"mousemove"},{"x":499,"y":569,"t":930,"event":"mousemove"},{"x":519,"y":566,"t":946,"event":"mousemove"},{"x":545,"y":564,"t":963,"event":"mousemove"},{"x":567,"y":564,"t":980,"event":"mousemove"},{"x":589,"y":564,"t":996,"event":"mousemove"},{"x":603,"y":564,"t":1013,"event":"mousemove"},{"x":616,"y":564,"t":1029,"event":"mousemove"},{"x":621,"y":564,"t":1045,"event":"mousemove"},{"x":625,"y":564,"t":1063,"event":"mousemove"},{"x":627,"y":564,"t":1130,"event":"mousemove"},{"x":628,"y":564,"t":1148,"event":"mousemove"},{"x":630,"y":564,"t":1166,"event":"mousemove"},{"x":632,"y":564,"t":1180,"event":"mousemove"},{"x":634,"y":564,"t":1196,"event":"mousemove"},{"x":636,"y":564,"t":1213,"event":"mousemove"},{"x":638,"y":564,"t":1230,"event":"mousemove"}],"mouse_tracking_targets":{},"correct":true},{"rt":1527,"stimulus":"<p>How different confident are you about your choice ?</p>","slider_start":50,"response":74,"trial_type":"html-slider-response","trial_index":11,"time_elapsed":20805,"internal_node_id":"0.0-4.0-1.2"},{"rt":null,"stimulus":"\n        <div id='jspsych-image' style='position: relative; width: min(80vw, 80vh); height: min(80vw, 80vh);'>\n                \n                <div style='position: absolute; top: 40%; left: 30%; bottom: 40%; right: 30%;'><h1 style='font-size: 60px; color: green;'>Correct!</h1></div>\n                \n                <div class='jspsych-image' id='jspsych-image-0' data-choice='0' style='top: 0;     left: 0;'><img style=\"max-width: 100%; max-height: 100%;\" src='../static/human_exp_images/task_color/02_1.png' class=''></img></div>\n                <div class='jspsych-image' id='jspsych-image-1' data-choice='1' style='top: 0;     right: 0;'><img style=\"max-width: 100%; max-height: 100%;\" src='../static/human_exp_images/task_color/02_0.png' class=''></img></div>\n                <div class='jspsych-image' id='jspsych-image-2' data-choice='2' style='bottom: 0;  left: 0;'><img style=\"max-width: 100%; max-height: 100%;\" src='../static/human_exp_images/task_color/02_2.png' class=''></img></div>\n                <div class='jspsych-image' id='jspsych-image-3' data-choice='3' style='bottom: 0;  right: 0;'><img style=\"max-width: 100%; max-height: 100%;\" src='../static/human_exp_images/task_color/02_3.png' class='correct-choice'></img></div>\n\n        </div>","response":null,"trial_type":"html-keyboard-response","trial_index":12,"time_elapsed":22309,"internal_node_id":"0.0-4.0-2.2"}]