[{"success":true,"timeout":false,"failed_images":[],"failed_audio":[],"failed_video":[],"trial_type":"preload","trial_index":0,"time_elapsed":110,"internal_node_id":"0.0-0.0"},{"rt":3047,"stimulus":"<p style='font-size: 40px'>Welcome to the experiment.</p><p style='font-size: 30px'>Press any key to begin.</p>","response":" ","trial_type":"html-keyboard-response","trial_index":1,"time_elapsed":3158,"internal_node_id":"0.0-1.0"},{"rt":2209,"stimulus":"\n    <p>In this experiment, 4 images will appear on the screen. 3 out of 4 images were generated with a certain rule while one image (the odd one out) does not respect this rule. Select the odd one out by clicking on the image.</p>\n    <p>Following your choice, you will be asked to rate how confident you were about your choice on a scale from 1 to 100. Then, you will receive feedback on the trial.</p>\n    <p>For each rule you will perform 20 trials. You will be notified at each rule change. </p>\n    <p> Press any button to continue </p>\n    <div style='margin: auto; position: relative; width: 400px; height: 400px;'>\n        <div style='position: absolute; top: 0;     left: 0; '><img src='../static/img/square.png'></img></div>\n        <div style='position: absolute; top: 0;     right: 0;'><img src='../static/img/square.png'></img></div>\n        <div style='position: absolute; bottom: 0;  left: 0; '><img src='../static/img/square.png'></img></div>\n        <div style='position: absolute; bottom: 0;  right: 0;'><img src='../static/img/square.png'></img></div>\n    </div>\n","response":" ","trial_type":"html-keyboard-response","trial_index":2,"time_elapsed":5371,"internal_node_id":"0.0-2.0"},{"rt":1576,"stimulus":"<h1 style='font-size: 60px'>New Rule!</h1> <p>Press any key to begin.</p>","response":" ","trial_type":"html-keyboard-response","trial_index":3,"time_elapsed":8951,"internal_node_id":"0.0-3.0"},{"rt":1814,"response":1,"all_choices":["../static/human_exp_images/task_count/00_2.png","../static/human_exp_images/task_count/00_3.png","../static/human_exp_images/task_count/00_1.png","../static/human_exp_images/task_count/00_0.png"],"task":"response","correct_response":1,"shuffled_array":[2,3,1,0],"trial_type":"image-click","trial_index":4,"time_elapsed":10770,"internal_node_id":"0.0-4.0-0.0","mouse_tracking_data":[{"x":997,"y":456,"t":721,"event":"mousemove"},{"x":999,"y":457,"t":730,"event":"mousemove"},{"x":1000,"y":458,"t":738,"event":"mousemove"},{"x":1000,"y":460,"t":792,"event":"mousemove"},{"x":1002,"y":460,"t":800,"event":"mousemove"},{"x":1004,"y":460,"t":838,"event":"mousemove"},{"x":1005,"y":460,"t":855,"event":"mousemove"},{"x":1007,"y":460,"t":1071,"event":"mousemove"},{"x":1007,"y":458,"t":1080,"event":"mousemove"},{"x":1007,"y":457,"t":1088,"event":"mousemove"},{"x":1007,"y":456,"t":1098,"event":"mousemove"},{"x":1007,"y":454,"t":1106,"event":"mousemove"},{"x":1007,"y":452,"t":1125,"event":"mousemove"},{"x":1007,"y":451,"t":1143,"event":"mousemove"},{"x":1007,"y":449,"t":1160,"event":"mousemove"},{"x":1007,"y":447,"t":1197,"event":"mousemove"},{"x":1008,"y":446,"t":1324,"event":"mousemove"},{"x":1008,"y":445,"t":1333,"event":"mousemove"},{"x":1010,"y":441,"t":1342,"event":"mousemove"},{"x":1010,"y":440,"t":1345,"event":"mousemove"},{"x":1010,"y":438,"t":1350,"event":"mousemove"},{"x":1011,"y":435,"t":1360,"event":"mousemove"},{"x":1011,"y":434,"t":1361,"event":"mousemove"},{"x":1013,"y":427,"t":1378,"event":"mousemove"},{"x":1016,"y":414,"t":1394,"event":"mousemove"},{"x":1018,"y":404,"t":1411,"event":"mousemove"},{"x":1022,"y":386,"t":1428,"event":"mousemove"},{"x":1028,"y":364,"t":1444,"event":"mousemove"},{"x":1035,"y":337,"t":1461,"event":"mousemove"},{"x":1045,"y":316,"t":1479,"event":"mousemove"},{"x":1053,"y":304,"t":1495,"event":"mousemove"},{"x":1062,"y":285,"t":1512,"event":"mousemove"},{"x":1073,"y":268,"t":1528,"event":"mousemove"},{"x":1082,"y":250,"t":1545,"event":"mousemove"},{"x":1084,"y":244,"t":1561,"event":"mousemove"},{"x":1086,"y":239,"t":1578,"event":"mousemove"}],"mouse_tracking_targets":{},"correct":true},{"rt":1855,"stimulus":"<p>How different confident are you about your choice ?</p>","slider_start":50,"response":74,"trial_type":"html-slider-response","trial_index":5,"time_elapsed":12626,"internal_node_id":"0.0-4.0-1.0"},{"rt":null,"stimulus":"\n        <div id='jspsych-image' style='position: relative; width: min(80vw, 80vh); height: min(80vw, 80vh);'>\n                \n                <div style='position: absolute; top: 40%; left: 30%; bottom: 40%; right: 30%;'><h1 style='font-size: 60px; color: green;'>Correct!</h1></div>\n                \n                <div class='jspsych-image' id='jspsych-image-0' data-choice='0' style='top: 0;     left: 0;'><img style=\"max-width: 100%; max-height: 100%;\" src='../static/human_exp_images/task_count/00_2.png' class=''></img></div>\n                <div class='jspsych-image' id='jspsych-image-1' data-choice='1' style='top: 0;     right: 0;'><img style=\"max-width: 100%; max-height: 100%;\" src='../static/human_exp_images/task_count/00_3.png' class='correct-choice'></img></div>\n                <div class='jspsych-image' id='jspsych-image-2' data-choice='2' style='bottom: 0;  left: 0;'><img style=\"max-width: 100%; max-height: 100%;\" src='../static/human_exp_images/task_count/00_1.png' class=''></img></div>\n                <div class='jspsych-image' id='jspsych-image-3' data-choice='3' style='bottom: 0;  right: 0;'><img style=\"max-width: 100%; max-height: 100%;\" src='../static/human_exp_images/task_count/00_0.png' class=''></img></div>\n\n        </div>","response":null,"trial_type":"html-keyboard-response","trial_index":6,"time_elapsed":14131,"internal_node_id":"0.0-4.0-2.0"},{"rt":1589,"response":0,"all_choices":["../static/human_exp_images/task_count/01_0.png","../static/human_exp_images/task_count/01_2.png","../static/human_exp_images/task_count/01_3.png","../static/human_exp_images/task_count/01_1.png"],"task":"response","correct_response":2,"shuffled_array":[0,2,3,1],"trial_type":"image-click","trial_index":7,"time_elapsed":15724,"internal_node_id":"0.0-4.0-0.1","mouse_tracking_data":[{"x":1165,"y":424,"t":69,"event":"mousemove"},{"x":1164,"y":424,"t":89,"event":"mousemove"},{"x":1162,"y":424,"t":100,"event":"mousemove"},{"x":1161,"y":424,"t":132,"event":"mousemove"},{"x":1160,"y":424,"t":151,"event":"mousemove"},{"x":1156,"y":424,"t":170,"event":"mousemove"},{"x":1150,"y":424,"t":179,"event":"mousemove"},{"x":1138,"y":424,"t":197,"event":"mousemove"},{"x":1131,"y":422,"t":213,"event":"mousemove"},{"x":1127,"y":422,"t":230,"event":"mousemove"},{"x":1125,"y":422,"t":252,"event":"mousemove"},{"x":1123,"y":422,"t":371,"event":"mousemove"},{"x":1122,"y":422,"t":379,"event":"mousemove"},{"x":1120,"y":422,"t":383,"event":"mousemove"},{"x":1117,"y":422,"t":387,"event":"mousemove"},{"x":1116,"y":422,"t":388,"event":"mousemove"},{"x":1111,"y":422,"t":404,"event":"mousemove"},{"x":1106,"y":422,"t":422,"event":"mousemove"},{"x":1103,"y":422,"t":438,"event":"mousemove"},{"x":1101,"y":422,"t":455,"event":"mousemove"},{"x":1100,"y":422,"t":505,"event":"mousemove"},{"x":1100,"y":421,"t":514,"event":"mousemove"},{"x":1098,"y":419,"t":532,"event":"mousemove"},{"x":1096,"y":417,"t":614,"event":"mousemove"},{"x":1094,"y":417,"t":622,"event":"mousemove"},{"x":1092,"y":416,"t":624,"event":"mousemove"},{"x":1085,"y":414,"t":640,"event":"mousemove"},{"x":1078,"y":413,"t":658,"event":"mousemove"},{"x":1076,"y":413,"t":673,"event":"mousemove"},{"x":1073,"y":411,"t":691,"event":"mousemove"},{"x":1070,"y":411,"t":707,"event":"mousemove"},{"x":1069,"y":411,"t":724,"event":"mousemove"},{"x":1061,"y":410,"t":740,"event":"mousemove"},{"x":1043,"y":408,"t":757,"event":"mousemove"},{"x":1029,"y":406,"t":774,"event":"mousemove"},{"x":1008,"y":405,"t":790,"event":"mousemove"},{"x":994,"y":405,"t":808,"event":"mousemove"},{"x":983,"y":405,"t":824,"event":"mousemove"},{"x":956,"y":401,"t":841,"event":"mousemove"},{"x":942,"y":396,"t":857,"event":"mousemove"},{"x":906,"y":383,"t":874,"event":"mousemove"},{"x":888,"y":375,"t":890,"event":"mousemove"},{"x":867,"y":364,"t":908,"event":"mousemove"},{"x":852,"y":355,"t":923,"event":"mousemove"},{"x":840,"y":344,"t":941,"event":"mousemove"},{"x":827,"y":335,"t":957,"event":"mousemove"},{"x":816,"y":328,"t":974,"event":"mousemove"},{"x":801,"y":314,"t":991,"event":"mousemove"},{"x":790,"y":305,"t":1008,"event":"mousemove"},{"x":781,"y":296,"t":1025,"event":"mousemove"},{"x":775,"y":286,"t":1041,"event":"mousemove"},{"x":770,"y":279,"t":1058,"event":"mousemove"},{"x":767,"y":277,"t":1074,"event":"mousemove"},{"x":765,"y":275,"t":1091,"event":"mousemove"},{"x":763,"y":275,"t":1113,"event":"mousemove"},{"x":761,"y":275,"t":1205,"event":"mousemove"}],"mouse_tracking_targets":{},"correct":false},{"rt":1933,"stimulus":"<p>How different confident are you about your choice ?</p>","slider_start":50,"response":66,"trial_type":"html-slider-response","trial_index":8,"time_elapsed":17658,"internal_node_id":"0.0-4.0-1.1"},{"rt":null,"stimulus":"\n        <div id='jspsych-image' style='position: relative; width: min(80vw, 80vh); height: min(80vw, 80vh);'>\n                \n                <div style='position: absolute; top: 40%; left: 30%; bottom: 40%; right: 30%;'><h1 style='font-size: 60px; color: red'>Wrong</h1></div>\n                \n                <div class='jspsych-image' id='jspsych-image-0' data-choice='0' style='top: 0;     left: 0;'><img style=\"max-width: 100%; max-height: 100%;\" src='../static/human_exp_images/task_count/01_0.png' class='wrong-choice'></img></div>\n                <div class='jspsych-image' id='jspsych-image-1' data-choice='1' style='top: 0;     right: 0;'><img style=\"max-width: 100%; max-height: 100%;\" src='../static/human_exp_images/task_count/01_2.png' class=''></img></div>\n                <div class='jspsych-image' id='jspsych-image-2' data-choice='2' style='bottom: 0;  left: 0;'><img style=\"max-width: 100%; max-height: 100%;\" src='../static/human_exp_images/task_count/01_3.png' class='correct-choice'></img></div>\n                <div class='jspsych-image' id='jspsych-image-3' data-choice='3' style='bottom: 0;  right: 0;'><img style=\"max-width: 100%; max-height: 100%;\" src='../static/human_exp_images/task_count/01_1.png' class=''></img></div>\n\n        </div>","response":null,"trial_type":"html-keyboard-response","trial_index":9,"time_elapsed":20162,"internal_node_id":"0.0-4.0-2.1"},{"rt":1688,"response":1,"all_choices":["../static/human_exp_images/task_count/02_0.png","../static/human_exp_images/task_count/02_3.png","../static/human_exp_images/task_count/02_2.png","../static/human_exp_images/task_count/02_1.png"],"task":"response","correct_response":1,"shuffled_array":[0,3,2,1],"trial_type":"image-click","trial_index":10,"time_elapsed":21853,"internal_node_id":"0.0-4.0-0.2","mouse_tracking_data":[{"x":905,"y":548,"t":891,"event":"mousemove"},{"x":907,"y":548,"t":895,"event":"mousemove"},{"x":908,"y":548,"t":899,"event":"mousemove"},{"x":909,"y":548,"t":901,"event":"mousemove"},{"x":913,"y":548,"t":918,"event":"mousemove"},{"x":916,"y":548,"t":935,"event":"mousemove"},{"x":918,"y":548,"t":954,"event":"mousemove"},{"x":919,"y":548,"t":962,"event":"mousemove"},{"x":920,"y":547,"t":964,"event":"mousemove"},{"x":922,"y":544,"t":971,"event":"mousemove"},{"x":922,"y":542,"t":974,"event":"mousemove"},{"x":922,"y":537,"t":979,"event":"mousemove"},{"x":924,"y":536,"t":981,"event":"mousemove"},{"x":925,"y":530,"t":997,"event":"mousemove"},{"x":929,"y":517,"t":1014,"event":"mousemove"},{"x":931,"y":504,"t":1030,"event":"mousemove"},{"x":935,"y":492,"t":1047,"event":"mousemove"},{"x":938,"y":481,"t":1063,"event":"mousemove"},{"x":942,"y":472,"t":1080,"event":"mousemove"},{"x":949,"y":464,"t":1097,"event":"mousemove"},{"x":951,"y":459,"t":1114,"event":"mousemove"},{"x":955,"y":456,"t":1132,"event":"mousemove"},{"x":958,"y":455,"t":1147,"event":"mousemove"},{"x":960,"y":455,"t":1165,"event":"mousemove"},{"x":963,"y":455,"t":1180,"event":"mousemove"},{"x":966,"y":455,"t":1198,"event":"mousemove"},{"x":969,"y":455,"t":1214,"event":"mousemove"},{"x":979,"y":469,"t":1231,"event":"mousemove"},{"x":992,"y":486,"t":1247,"event":"mousemove"},{"x":1006,"y":498,"t":1264,"event":"mousemove"},{"x":1013,"y":501,"t":1280,"event":"mousemove"},{"x":1019,"y":501,"t":1298,"event":"mousemove"},{"x":1026,"y":501,"t":1314,"event":"mousemove"},{"x":1030,"y":501,"t":1331,"event":"mousemove"},{"x":1034,"y":496,"t":1347,"event":"mousemove"},{"x":1039,"y":485,"t":1364,"event":"mousemove"},{"x":1040,"y":471,"t":1381,"event":"mousemove"},{"x":1041,"y":454,"t":1397,"event":"mousemove"},{"x":1041,"y":440,"t":1414,"event":"mousemove"},{"x":1041,"y":420,"t":1430,"event":"mousemove"},{"x":1041,"y":403,"t":1447,"event":"mousemove"},{"x":1041,"y":381,"t":1464,"event":"mousemove"},{"x":1041,"y":360,"t":1481,"event":"mousemove"},{"x":1041,"y":337,"t":1497,"event":"mousemove"},{"x":1041,"y":316,"t":1514,"event":"mousemove"},{"x":1041,"y":305,"t":1531,"event":"mousemove"},{"x":1041,"y":288,"t":1547,"event":"mousemove"},{"x":1041,"y":281,"t":1565,"event":"mousemove"},{"x":1041,"y":279,"t":1581,"event":"mousemove"},{"x":1041,"y":277,"t":1598,"event":"mousemove"}],"mouse_tracking_targets":{},"correct":true},{"rt":1591,"stimulus":"<p>How different confident are you about your choice ?</p>","slider_start":50,"response":73,"trial_type":"html-slider-response","trial_index":11,"time_elapsed":23446,"internal_node_id":"0.0-4.0-1.2"},{"rt":null,"stimulus":"\n        <div id='jspsych-image' style='position: relative; width: min(80vw, 80vh); height: min(80vw, 80vh);'>\n                \n                <div style='position: absolute; top: 40%; left: 30%; bottom: 40%; right: 30%;'><h1 style='font-size: 60px; color: green;'>Correct!</h1></div>\n                \n                <div class='jspsych-image' id='jspsych-image-0' data-choice='0' style='top: 0;     left: 0;'><img style=\"max-width: 100%; max-height: 100%;\" src='../static/human_exp_images/task_count/02_0.png' class=''></img></div>\n                <div class='jspsych-image' id='jspsych-image-1' data-choice='1' style='top: 0;     right: 0;'><img style=\"max-width: 100%; max-height: 100%;\" src='../static/human_exp_images/task_count/02_3.png' class='correct-choice'></img></div>\n                <div class='jspsych-image' id='jspsych-image-2' data-choice='2' style='bottom: 0;  left: 0;'><img style=\"max-width: 100%; max-height: 100%;\" src='../static/human_exp_images/task_count/02_2.png' class=''></img></div>\n                <div class='jspsych-image' id='jspsych-image-3' data-choice='3' style='bottom: 0;  right: 0;'><img style=\"max-width: 100%; max-height: 100%;\" src='../static/human_exp_images/task_count/02_1.png' class=''></img></div>\n\n        </div>","response":null,"trial_type":"html-keyboard-response","trial_index":12,"time_elapsed":24949,"internal_node_id":"0.0-4.0-2.2"},{"rt":1730,"stimulus":"<h1 style='font-size: 60px'>New Rule!</h1> <p>Press any key to begin.</p>","response":" ","trial_type":"html-keyboard-response","trial_index":13,"time_elapsed":26680,"internal_node_id":"0.0-5.0"},{"rt":1680,"response":3,"all_choices":["../static/human_exp_images/task_inside/00_0.png","../static/human_exp_images/task_inside/00_2.png","../static/human_exp_images/task_inside/00_1.png","../static/human_exp_images/task_inside/00_3.png"],"task":"response","correct_response":3,"shuffled_array":[0,2,1,3],"trial_type":"image-click","trial_index":14,"time_elapsed":28362,"internal_node_id":"0.0-6.0-0.0","mouse_tracking_data":[{"x":949,"y":506,"t":644,"event":"mousemove"},{"x":947,"y":506,"t":733,"event":"mousemove"},{"x":946,"y":506,"t":735,"event":"mousemove"},{"x":940,"y":506,"t":752,"event":"mousemove"},{"x":935,"y":501,"t":769,"event":"mousemove"},{"x":929,"y":495,"t":785,"event":"mousemove"},{"x":924,"y":489,"t":802,"event":"mousemove"},{"x":919,"y":482,"t":818,"event":"mousemove"},{"x":915,"y":477,"t":835,"event":"mousemove"},{"x":909,"y":470,"t":852,"event":"mousemove"},{"x":907,"y":464,"t":868,"event":"mousemove"},{"x":905,"y":464,"t":896,"event":"mousemove"},{"x":905,"y":462,"t":959,"event":"mousemove"},{"x":904,"y":462,"t":1021,"event":"mousemove"},{"x":904,"y":460,"t":1038,"event":"mousemove"},{"x":904,"y":459,"t":1128,"event":"mousemove"},{"x":904,"y":460,"t":1283,"event":"mousemove"},{"x":904,"y":467,"t":1290,"event":"mousemove"},{"x":904,"y":470,"t":1293,"event":"mousemove"},{"x":904,"y":477,"t":1299,"event":"mousemove"},{"x":904,"y":479,"t":1303,"event":"mousemove"},{"x":904,"y":484,"t":1308,"event":"mousemove"},{"x":904,"y":490,"t":1309,"event":"mousemove"},{"x":904,"y":498,"t":1325,"event":"mousemove"},{"x":904,"y":509,"t":1342,"event":"mousemove"},{"x":904,"y":520,"t":1358,"event":"mousemove"},{"x":904,"y":529,"t":1376,"event":"mousemove"},{"x":907,"y":542,"t":1392,"event":"mousemove"},{"x":921,"y":554,"t":1409,"event":"mousemove"},{"x":951,"y":567,"t":1425,"event":"mousemove"},{"x":976,"y":578,"t":1442,"event":"mousemove"},{"x":1010,"y":592,"t":1459,"event":"mousemove"},{"x":1032,"y":599,"t":1476,"event":"mousemove"},{"x":1064,"y":608,"t":1493,"event":"mousemove"},{"x":1073,"y":611,"t":1509,"event":"mousemove"},{"x":1077,"y":613,"t":1526,"event":"mousemove"},{"x":1079,"y":613,"t":1542,"event":"mousemove"},{"x":1081,"y":613,"t":1562,"event":"mousemove"}],"mouse_tracking_targets":{},"correct":true},{"rt":2051,"stimulus":"<p>How different confident are you about your choice ?</p>","slider_start":50,"response":77,"trial_type":"html-slider-response","trial_index":15,"time_elapsed":30415,"internal_node_id":"0.0-6.0-1.0"},{"rt":null,"stimulus":"\n        <div id='jspsych-image' style='position: relative; width: min(80vw, 80vh); height: min(80vw, 80vh);'>\n                \n                <div style='position: absolute; top: 40%; left: 30%; bottom: 40%; right: 30%;'><h1 style='font-size: 60px; color: green;'>Correct!</h1></div>\n                \n                <div class='jspsych-image' id='jspsych-image-0' data-choice='0' style='top: 0;     left: 0;'><img style=\"max-width: 100%; max-height: 100%;\" src='../static/human_exp_images/task_inside/00_0.png' class=''></img></div>\n                <div class='jspsych-image' id='jspsych-image-1' data-choice='1' style='top: 0;     right: 0;'><img style=\"max-width: 100%; max-height: 100%;\" src='../static/human_exp_images/task_inside/00_2.png' class=''></img></div>\n                <div class='jspsych-image' id='jspsych-image-2' data-choice='2' style='bottom: 0;  left: 0;'><img style=\"max-width: 100%; max-height: 100%;\" src='../static/human_exp_images/task_inside/00_1.png' class=''></img></div>\n                <div class='jspsych-image' id='jspsych-image-3' data-choice='3' style='bottom: 0;  right: 0;'><img style=\"max-width: 100%; max-height: 100%;\" src='../static/human_exp_images/task_inside/00_3.png' class='correct-choice'></img></div>\n\n        </div>","response":null,"trial_type":"html-keyboard-response","trial_index":16,"time_elapsed":31918,"internal_node_id":"0.0-6.0-2.0"},{"rt":4479,"response":2,"all_choices":["../static/human_exp_images/task_inside/01_0.png","../static/human_exp_images/task_inside/01_2.png","../static/human_exp_images/task_inside/01_3.png","../static/human_exp_images/task_inside/01_1.png"],"task":"response","correct_response":2,"shuffled_array":[0,2,3,1],"trial_type":"image-click","trial_index":17,"time_elapsed":36400,"internal_node_id":"0.0-6.0-0.1","mouse_tracking_data":[{"x":941,"y":555,"t":3725,"event":"mousemove"},{"x":941,"y":556,"t":3877,"event":"mousemove"},{"x":941,"y":558,"t":3931,"event":"mousemove"},{"x":941,"y":560,"t":3959,"event":"mousemove"},{"x":941,"y":561,"t":3995,"event":"mousemove"},{"x":941,"y":563,"t":4008,"event":"mousemove"},{"x":941,"y":565,"t":4019,"event":"mousemove"},{"x":941,"y":566,"t":4022,"event":"mousemove"},{"x":941,"y":567,"t":4023,"event":"mousemove"},{"x":941,"y":569,"t":4039,"event":"mousemove"},{"x":941,"y":574,"t":4057,"event":"mousemove"},{"x":932,"y":580,"t":4073,"event":"mousemove"},{"x":921,"y":587,"t":4090,"event":"mousemove"},{"x":908,"y":591,"t":4106,"event":"mousemove"},{"x":895,"y":596,"t":4123,"event":"mousemove"},{"x":884,"y":597,"t":4139,"event":"mousemove"},{"x":871,"y":600,"t":4156,"event":"mousemove"},{"x":858,"y":602,"t":4172,"event":"mousemove"},{"x":849,"y":602,"t":4189,"event":"mousemove"},{"x":840,"y":603,"t":4206,"event":"mousemove"},{"x":829,"y":607,"t":4222,"event":"mousemove"},{"x":820,"y":608,"t":4239,"event":"mousemove"},{"x":809,"y":611,"t":4256,"event":"mousemove"},{"x":793,"y":614,"t":4274,"event":"mousemove"},{"x":778,"y":618,"t":4289,"event":"mousemove"},{"x":767,"y":618,"t":4307,"event":"mousemove"},{"x":757,"y":620,"t":4322,"event":"mousemove"},{"x":751,"y":621,"t":4340,"event":"mousemove"},{"x":747,"y":622,"t":4356,"event":"mousemove"},{"x":744,"y":622,"t":4374,"event":"mousemove"},{"x":743,"y":622,"t":4389,"event":"mousemove"},{"x":742,"y":622,"t":4407,"event":"mousemove"}],"mouse_tracking_targets":{},"correct":true},{"rt":2743,"stimulus":"<p>How different confident are you about your choice ?</p>","slider_start":50,"response":81,"trial_type":"html-slider-response","trial_index":18,"time_elapsed":39145,"internal_node_id":"0.0-6.0-1.1"},{"rt":null,"stimulus":"\n        <div id='jspsych-image' style='position: relative; width: min(80vw, 80vh); height: min(80vw, 80vh);'>\n                \n                <div style='position: absolute; top: 40%; left: 30%; bottom: 40%; right: 30%;'><h1 style='font-size: 60px; color: green;'>Correct!</h1></div>\n                \n                <div class='jspsych-image' id='jspsych-image-0' data-choice='0' style='top: 0;     left: 0;'><img style=\"max-width: 100%; max-height: 100%;\" src='../static/human_exp_images/task_inside/01_0.png' class=''></img></div>\n                <div class='jspsych-image' id='jspsych-image-1' data-choice='1' style='top: 0;     right: 0;'><img style=\"max-width: 100%; max-height: 100%;\" src='../static/human_exp_images/task_inside/01_2.png' class=''></img></div>\n                <div class='jspsych-image' id='jspsych-image-2' data-choice='2' style='bottom: 0;  left: 0;'><img style=\"max-width: 100%; max-height: 100%;\" src='../static/human_exp_images/task_inside/01_3.png' class='correct-choice'></img></div>\n                <div class='jspsych-image' id='jspsych-image-3' data-choice='3' style='bottom: 0;  right: 0;'><img style=\"max-width: 100%; max-height: 100%;\" src='../static/human_exp_images/task_inside/01_1.png' class=''></img></div>\n\n        </div>","response":null,"trial_type":"html-keyboard-response","trial_index":19,"time_elapsed":40648,"internal_node_id":"0.0-6.0-2.1"},{"rt":3525,"response":0,"all_choices":["../static/human_exp_images/task_inside/02_0.png","../static/human_exp_images/task_inside/02_3.png","../static/human_exp_images/task_inside/02_1.png","../static/human_exp_images/task_inside/02_2.png"],"task":"response","correct_response":1,"shuffled_array":[0,3,1,2],"trial_type":"image-click","trial_index":20,"time_elapsed":44175,"internal_node_id":"0.0-6.0-0.2","mouse_tracking_data":[{"x":941,"y":552,"t":2716,"event":"mousemove"},{"x":941,"y":553,"t":2724,"event":"mousemove"},{"x":941,"y":555,"t":2733,"event":"mousemove"},{"x":941,"y":556,"t":2839,"event":"mousemove"},{"x":941,"y":553,"t":2983,"event":"mousemove"},{"x":941,"y":551,"t":2984,"event":"mousemove"},{"x":941,"y":546,"t":3000,"event":"mousemove"},{"x":939,"y":535,"t":3017,"event":"mousemove"},{"x":934,"y":524,"t":3034,"event":"mousemove"},{"x":925,"y":514,"t":3051,"event":"mousemove"},{"x":915,"y":503,"t":3067,"event":"mousemove"},{"x":908,"y":493,"t":3084,"event":"mousemove"},{"x":897,"y":477,"t":3100,"event":"mousemove"},{"x":886,"y":465,"t":3117,"event":"mousemove"},{"x":872,"y":446,"t":3134,"event":"mousemove"},{"x":857,"y":427,"t":3151,"event":"mousemove"},{"x":840,"y":408,"t":3168,"event":"mousemove"},{"x":824,"y":394,"t":3184,"event":"mousemove"},{"x":809,"y":377,"t":3201,"event":"mousemove"},{"x":799,"y":368,"t":3217,"event":"mousemove"},{"x":787,"y":354,"t":3234,"event":"mousemove"},{"x":776,"y":342,"t":3250,"event":"mousemove"},{"x":767,"y":333,"t":3268,"event":"mousemove"},{"x":756,"y":318,"t":3284,"event":"mousemove"},{"x":749,"y":309,"t":3301,"event":"mousemove"},{"x":744,"y":302,"t":3317,"event":"mousemove"},{"x":740,"y":291,"t":3335,"event":"mousemove"},{"x":736,"y":281,"t":3351,"event":"mousemove"},{"x":732,"y":276,"t":3367,"event":"mousemove"},{"x":732,"y":273,"t":3385,"event":"mousemove"}],"mouse_tracking_targets":{},"correct":false},{"rt":1775,"stimulus":"<p>How different confident are you about your choice ?</p>","slider_start":50,"response":77,"trial_type":"html-slider-response","trial_index":21,"time_elapsed":45953,"internal_node_id":"0.0-6.0-1.2"},{"rt":null,"stimulus":"\n        <div id='jspsych-image' style='position: relative; width: min(80vw, 80vh); height: min(80vw, 80vh);'>\n                \n                <div style='position: absolute; top: 40%; left: 30%; bottom: 40%; right: 30%;'><h1 style='font-size: 60px; color: red'>Wrong</h1></div>\n                \n                <div class='jspsych-image' id='jspsych-image-0' data-choice='0' style='top: 0;     left: 0;'><img style=\"max-width: 100%; max-height: 100%;\" src='../static/human_exp_images/task_inside/02_0.png' class='wrong-choice'></img></div>\n                <div class='jspsych-image' id='jspsych-image-1' data-choice='1' style='top: 0;     right: 0;'><img style=\"max-width: 100%; max-height: 100%;\" src='../static/human_exp_images/task_inside/02_3.png' class='correct-choice'></img></div>\n                <div class='jspsych-image' id='jspsych-image-2' data-choice='2' style='bottom: 0;  left: 0;'><img style=\"max-width: 100%; max-height: 100%;\" src='../static/human_exp_images/task_inside/02_1.png' class=''></img></div>\n                <div class='jspsych-image' id='jspsych-image-3' data-choice='3' style='bottom: 0;  right: 0;'><img style=\"max-width: 100%; max-height: 100%;\" src='../static/human_exp_images/task_inside/02_2.png' class=''></img></div>\n\n        </div>","response":null,"trial_type":"html-keyboard-response","trial_index":22,"time_elapsed":48456,"internal_node_id":"0.0-6.0-2.2"},{"rt":1412,"stimulus":"<h1 style='font-size: 60px'>New Rule!</h1> <p>Press any key to begin.</p>","response":" ","trial_type":"html-keyboard-response","trial_index":23,"time_elapsed":49868,"internal_node_id":"0.0-7.0"},{"rt":4297,"response":3,"all_choices":["../static/human_exp_images/task_count_inside_1/00_2.png","../static/human_exp_images/task_count_inside_1/00_1.png","../static/human_exp_images/task_count_inside_1/00_0.png","../static/human_exp_images/task_count_inside_1/00_3.png"],"task":"response","correct_response":3,"shuffled_array":[2,1,0,3],"trial_type":"image-click","trial_index":24,"time_elapsed":54169,"internal_node_id":"0.0-8.0-0.0","mouse_tracking_data":[{"x":900,"y":545,"t":2496,"event":"mousemove"},{"x":900,"y":547,"t":2504,"event":"mousemove"},{"x":900,"y":549,"t":2513,"event":"mousemove"},{"x":900,"y":550,"t":2514,"event":"mousemove"},{"x":900,"y":552,"t":2530,"event":"mousemove"},{"x":900,"y":556,"t":2547,"event":"mousemove"},{"x":900,"y":560,"t":2564,"event":"mousemove"},{"x":900,"y":563,"t":2581,"event":"mousemove"},{"x":900,"y":566,"t":2597,"event":"mousemove"},{"x":900,"y":569,"t":2614,"event":"mousemove"},{"x":900,"y":572,"t":2630,"event":"mousemove"},{"x":899,"y":576,"t":2647,"event":"mousemove"},{"x":897,"y":577,"t":2664,"event":"mousemove"},{"x":896,"y":580,"t":2681,"event":"mousemove"},{"x":893,"y":583,"t":2697,"event":"mousemove"},{"x":891,"y":587,"t":2714,"event":"mousemove"},{"x":888,"y":591,"t":2731,"event":"mousemove"},{"x":885,"y":594,"t":2747,"event":"mousemove"},{"x":884,"y":596,"t":2764,"event":"mousemove"},{"x":878,"y":600,"t":2781,"event":"mousemove"},{"x":874,"y":603,"t":2797,"event":"mousemove"},{"x":869,"y":607,"t":2814,"event":"mousemove"},{"x":866,"y":610,"t":2830,"event":"mousemove"},{"x":863,"y":613,"t":2847,"event":"mousemove"},{"x":855,"y":618,"t":2865,"event":"mousemove"},{"x":853,"y":621,"t":2881,"event":"mousemove"},{"x":851,"y":624,"t":2898,"event":"mousemove"},{"x":847,"y":625,"t":2914,"event":"mousemove"},{"x":844,"y":629,"t":2931,"event":"mousemove"},{"x":841,"y":630,"t":2947,"event":"mousemove"},{"x":840,"y":632,"t":2964,"event":"mousemove"},{"x":840,"y":633,"t":2980,"event":"mousemove"},{"x":838,"y":633,"t":2998,"event":"mousemove"},{"x":836,"y":633,"t":3014,"event":"mousemove"},{"x":833,"y":636,"t":3031,"event":"mousemove"},{"x":831,"y":638,"t":3047,"event":"mousemove"},{"x":831,"y":638,"t":3080,"event":"mousemove"},{"x":831,"y":640,"t":3089,"event":"mousemove"},{"x":831,"y":640,"t":3891,"event":"mousemove"},{"x":834,"y":640,"t":3900,"event":"mousemove"},{"x":836,"y":640,"t":3905,"event":"mousemove"},{"x":838,"y":640,"t":3909,"event":"mousemove"},{"x":840,"y":640,"t":3910,"event":"mousemove"},{"x":845,"y":640,"t":3926,"event":"mousemove"},{"x":856,"y":636,"t":3943,"event":"mousemove"},{"x":866,"y":633,"t":3960,"event":"mousemove"},{"x":875,"y":630,"t":3977,"event":"mousemove"},{"x":885,"y":627,"t":3993,"event":"mousemove"},{"x":894,"y":625,"t":4010,"event":"mousemove"},{"x":909,"y":622,"t":4026,"event":"mousemove"},{"x":919,"y":621,"t":4043,"event":"mousemove"},{"x":941,"y":618,"t":4059,"event":"mousemove"},{"x":963,"y":614,"t":4076,"event":"mousemove"},{"x":981,"y":612,"t":4093,"event":"mousemove"},{"x":993,"y":611,"t":4109,"event":"mousemove"},{"x":1004,"y":611,"t":4126,"event":"mousemove"},{"x":1012,"y":611,"t":4143,"event":"mousemove"},{"x":1014,"y":611,"t":4159,"event":"mousemove"},{"x":1015,"y":611,"t":4176,"event":"mousemove"},{"x":1017,"y":611,"t":4194,"event":"mousemove"},{"x":1018,"y":611,"t":4216,"event":"mousemove"},{"x":1018,"y":609,"t":4253,"event":"mousemove"}],"mouse_tracking_targets":{},"correct":true},{"rt":2399,"stimulus":"<p>How different confident are you about your choice ?</p>","slider_start":50,"response":85,"trial_type":"html-slider-response","trial_index":25,"time_elapsed":56569,"internal_node_id":"0.0-8.0-1.0"},{"rt":null,"stimulus":"\n        <div id='jspsych-image' style='position: relative; width: min(80vw, 80vh); height: min(80vw, 80vh);'>\n                \n                <div style='position: absolute; top: 40%; left: 30%; bottom: 40%; right: 30%;'><h1 style='font-size: 60px; color: green;'>Correct!</h1></div>\n                \n                <div class='jspsych-image' id='jspsych-image-0' data-choice='0' style='top: 0;     left: 0;'><img style=\"max-width: 100%; max-height: 100%;\" src='../static/human_exp_images/task_count_inside_1/00_2.png' class=''></img></div>\n                <div class='jspsych-image' id='jspsych-image-1' data-choice='1' style='top: 0;     right: 0;'><img style=\"max-width: 100%; max-height: 100%;\" src='../static/human_exp_images/task_count_inside_1/00_1.png' class=''></img></div>\n                <div class='jspsych-image' id='jspsych-image-2' data-choice='2' style='bottom: 0;  left: 0;'><img style=\"max-width: 100%; max-height: 100%;\" src='../static/human_exp_images/task_count_inside_1/00_0.png' class=''></img></div>\n                <div class='jspsych-image' id='jspsych-image-3' data-choice='3' style='bottom: 0;  right: 0;'><img style=\"max-width: 100%; max-height: 100%;\" src='../static/human_exp_images/task_count_inside_1/00_3.png' class='correct-choice'></img></div>\n\n        </div>","response":null,"trial_type":"html-keyboard-response","trial_index":26,"time_elapsed":58072,"internal_node_id":"0.0-8.0-2.0"},{"rt":3329,"response":2,"all_choices":["../static/human_exp_images/task_count_inside_1/01_0.png","../static/human_exp_images/task_count_inside_1/01_1.png","../static/human_exp_images/task_count_inside_1/01_3.png","../static/human_exp_images/task_count_inside_1/01_2.png"],"task":"response","correct_response":2,"shuffled_array":[0,1,3,2],"trial_type":"image-click","trial_index":27,"time_elapsed":61405,"internal_node_id":"0.0-8.0-0.1","mouse_tracking_data":[{"x":884,"y":538,"t":657,"event":"mousemove"},{"x":882,"y":538,"t":675,"event":"mousemove"},{"x":880,"y":538,"t":738,"event":"mousemove"},{"x":878,"y":538,"t":747,"event":"mousemove"},{"x":878,"y":536,"t":792,"event":"mousemove"},{"x":877,"y":536,"t":800,"event":"mousemove"},{"x":877,"y":534,"t":827,"event":"mousemove"},{"x":875,"y":534,"t":899,"event":"mousemove"},{"x":875,"y":534,"t":917,"event":"mousemove"},{"x":875,"y":534,"t":2901,"event":"mousemove"},{"x":871,"y":534,"t":2909,"event":"mousemove"},{"x":869,"y":534,"t":2912,"event":"mousemove"},{"x":864,"y":534,"t":2928,"event":"mousemove"},{"x":862,"y":534,"t":2944,"event":"mousemove"},{"x":857,"y":534,"t":2961,"event":"mousemove"},{"x":842,"y":538,"t":2978,"event":"mousemove"},{"x":821,"y":541,"t":2994,"event":"mousemove"},{"x":804,"y":543,"t":3011,"event":"mousemove"},{"x":786,"y":546,"t":3027,"event":"mousemove"},{"x":776,"y":549,"t":3045,"event":"mousemove"},{"x":764,"y":553,"t":3061,"event":"mousemove"},{"x":756,"y":557,"t":3078,"event":"mousemove"},{"x":747,"y":559,"t":3095,"event":"mousemove"},{"x":742,"y":563,"t":3110,"event":"mousemove"},{"x":735,"y":564,"t":3128,"event":"mousemove"},{"x":731,"y":567,"t":3145,"event":"mousemove"},{"x":725,"y":569,"t":3162,"event":"mousemove"},{"x":722,"y":569,"t":3178,"event":"mousemove"},{"x":721,"y":569,"t":3195,"event":"mousemove"},{"x":720,"y":570,"t":3211,"event":"mousemove"},{"x":718,"y":570,"t":3238,"event":"mousemove"}],"mouse_tracking_targets":{},"correct":true},{"rt":1836,"stimulus":"<p>How different confident are you about your choice ?</p>","slider_start":50,"response":98,"trial_type":"html-slider-response","trial_index":28,"time_elapsed":63242,"internal_node_id":"0.0-8.0-1.1"},{"rt":null,"stimulus":"\n        <div id='jspsych-image' style='position: relative; width: min(80vw, 80vh); height: min(80vw, 80vh);'>\n                \n                <div style='position: absolute; top: 40%; left: 30%; bottom: 40%; right: 30%;'><h1 style='font-size: 60px; color: green;'>Correct!</h1></div>\n                \n                <div class='jspsych-image' id='jspsych-image-0' data-choice='0' style='top: 0;     left: 0;'><img style=\"max-width: 100%; max-height: 100%;\" src='../static/human_exp_images/task_count_inside_1/01_0.png' class=''></img></div>\n                <div class='jspsych-image' id='jspsych-image-1' data-choice='1' style='top: 0;     right: 0;'><img style=\"max-width: 100%; max-height: 100%;\" src='../static/human_exp_images/task_count_inside_1/01_1.png' class=''></img></div>\n                <div class='jspsych-image' id='jspsych-image-2' data-choice='2' style='bottom: 0;  left: 0;'><img style=\"max-width: 100%; max-height: 100%;\" src='../static/human_exp_images/task_count_inside_1/01_3.png' class='correct-choice'></img></div>\n                <div class='jspsych-image' id='jspsych-image-3' data-choice='3' style='bottom: 0;  right: 0;'><img style=\"max-width: 100%; max-height: 100%;\" src='../static/human_exp_images/task_count_inside_1/01_2.png' class=''></img></div>\n\n        </div>","response":null,"trial_type":"html-keyboard-response","trial_index":29,"time_elapsed":64746,"internal_node_id":"0.0-8.0-2.1"},{"rt":4021,"response":1,"all_choices":["../static/human_exp_images/task_count_inside_1/02_0.png","../static/human_exp_images/task_count_inside_1/02_3.png","../static/human_exp_images/task_count_inside_1/02_1.png","../static/human_exp_images/task_count_inside_1/02_2.png"],"task":"response","correct_response":1,"shuffled_array":[0,3,1,2],"trial_type":"image-click","trial_index":30,"time_elapsed":68770,"internal_node_id":"0.0-8.0-0.2","mouse_tracking_data":[{"x":908,"y":559,"t":2024,"event":"mousemove"},{"x":908,"y":560,"t":2060,"event":"mousemove"},{"x":908,"y":562,"t":2107,"event":"mousemove"},{"x":908,"y":564,"t":2160,"event":"mousemove"},{"x":908,"y":565,"t":2177,"event":"mousemove"},{"x":908,"y":567,"t":2298,"event":"mousemove"},{"x":908,"y":568,"t":2313,"event":"mousemove"},{"x":908,"y":570,"t":2398,"event":"mousemove"},{"x":910,"y":570,"t":2447,"event":"mousemove"},{"x":910,"y":571,"t":2553,"event":"mousemove"},{"x":910,"y":573,"t":2572,"event":"mousemove"},{"x":910,"y":575,"t":2590,"event":"mousemove"},{"x":912,"y":575,"t":2653,"event":"mousemove"},{"x":912,"y":576,"t":2872,"event":"mousemove"},{"x":913,"y":576,"t":2964,"event":"mousemove"},{"x":913,"y":578,"t":2999,"event":"mousemove"},{"x":913,"y":579,"t":3055,"event":"mousemove"},{"x":915,"y":579,"t":3557,"event":"mousemove"},{"x":915,"y":576,"t":3566,"event":"mousemove"},{"x":915,"y":573,"t":3569,"event":"mousemove"},{"x":917,"y":567,"t":3575,"event":"mousemove"},{"x":917,"y":565,"t":3579,"event":"mousemove"},{"x":917,"y":562,"t":3583,"event":"mousemove"},{"x":917,"y":560,"t":3583,"event":"mousemove"},{"x":917,"y":556,"t":3599,"event":"mousemove"},{"x":919,"y":540,"t":3617,"event":"mousemove"},{"x":923,"y":511,"t":3633,"event":"mousemove"},{"x":925,"y":500,"t":3650,"event":"mousemove"},{"x":930,"y":469,"t":3666,"event":"mousemove"},{"x":941,"y":432,"t":3684,"event":"mousemove"},{"x":961,"y":369,"t":3700,"event":"mousemove"},{"x":979,"y":316,"t":3717,"event":"mousemove"},{"x":1018,"y":245,"t":3734,"event":"mousemove"},{"x":1030,"y":222,"t":3750,"event":"mousemove"},{"x":1092,"y":106,"t":3767,"event":"mousemove"},{"x":1101,"y":88,"t":3784,"event":"mousemove"},{"x":1115,"y":71,"t":3800,"event":"mousemove"},{"x":1117,"y":66,"t":3817,"event":"mousemove"},{"x":1118,"y":66,"t":3834,"event":"mousemove"}],"mouse_tracking_targets":{},"correct":true},{"rt":1890,"stimulus":"<p>How different confident are you about your choice ?</p>","slider_start":50,"response":90,"trial_type":"html-slider-response","trial_index":31,"time_elapsed":70665,"internal_node_id":"0.0-8.0-1.2"},{"rt":null,"stimulus":"\n        <div id='jspsych-image' style='position: relative; width: min(80vw, 80vh); height: min(80vw, 80vh);'>\n                \n                <div style='position: absolute; top: 40%; left: 30%; bottom: 40%; right: 30%;'><h1 style='font-size: 60px; color: green;'>Correct!</h1></div>\n                \n                <div class='jspsych-image' id='jspsych-image-0' data-choice='0' style='top: 0;     left: 0;'><img style=\"max-width: 100%; max-height: 100%;\" src='../static/human_exp_images/task_count_inside_1/02_0.png' class=''></img></div>\n                <div class='jspsych-image' id='jspsych-image-1' data-choice='1' style='top: 0;     right: 0;'><img style=\"max-width: 100%; max-height: 100%;\" src='../static/human_exp_images/task_count_inside_1/02_3.png' class='correct-choice'></img></div>\n                <div class='jspsych-image' id='jspsych-image-2' data-choice='2' style='bottom: 0;  left: 0;'><img style=\"max-width: 100%; max-height: 100%;\" src='../static/human_exp_images/task_count_inside_1/02_1.png' class=''></img></div>\n                <div class='jspsych-image' id='jspsych-image-3' data-choice='3' style='bottom: 0;  right: 0;'><img style=\"max-width: 100%; max-height: 100%;\" src='../static/human_exp_images/task_count_inside_1/02_2.png' class=''></img></div>\n\n        </div>","response":null,"trial_type":"html-keyboard-response","trial_index":32,"time_elapsed":72170,"internal_node_id":"0.0-8.0-2.2"},{"rt":3008,"stimulus":"<p>You responded correctly on 78% of the trials.</p>\n    <p>Your average response time was 3044ms.</p>\n    <p>Press any key to complete the experiment. Thank you!</p>","response":" ","trial_type":"html-keyboard-response","trial_index":33,"time_elapsed":75183,"internal_node_id":"0.0-9.0","interactions":"[{\"event\":\"focus\",\"trial\":0,\"time\":1}]"}]