[{"success":true,"timeout":false,"failed_images":[],"failed_audio":[],"failed_video":[],"trial_type":"preload","trial_index":0,"time_elapsed":11,"internal_node_id":"0.0-0.0"},{"rt":1593,"stimulus":"<p style='font-size: 40px'>Welcome to the experiment.</p><p style='font-size: 30px'>Press any key to begin.</p>","response":" ","trial_type":"html-keyboard-response","trial_index":1,"time_elapsed":1603,"internal_node_id":"0.0-1.0"},{"rt":1610,"stimulus":"\n    <p>In this experiment, 4 images will appear on the screen. 3 out of 4 images were generated with a certain rule while one image (the odd one out) does not respect this rule. Select the odd one out by clicking on the image.</p>\n    <p>Following your choice, you will be asked to rate how confident you were about your choice on a scale from 1 to 100. Then, you will receive feedback on the trial.</p>\n    <p>For each rule you will perform 20 trials. You will be notified at each rule change. </p>\n    <p> Press any button to continue </p>\n    <div style='margin: auto; position: relative; width: 400px; height: 400px;'>\n        <div style='position: absolute; top: 0;     left: 0; '><img src='../static/img/square.png'></img></div>\n        <div style='position: absolute; top: 0;     right: 0;'><img src='../static/img/square.png'></img></div>\n        <div style='position: absolute; bottom: 0;  left: 0; '><img src='../static/img/square.png'></img></div>\n        <div style='position: absolute; bottom: 0;  right: 0;'><img src='../static/img/square.png'></img></div>\n    </div>\n","response":" ","trial_type":"html-keyboard-response","trial_index":2,"time_elapsed":3217,"internal_node_id":"0.0-2.0"},{"rt":1802,"stimulus":"<h1 style='font-size: 60px'>New Rule!</h1> <p>Press any key to begin.</p>","response":" ","trial_type":"html-keyboard-response","trial_index":3,"time_elapsed":7022,"internal_node_id":"0.0-3.0"},{"rt":701,"response":3,"all_choices":["../static/human_exp_images/task_rot/00_2.png","../static/human_exp_images/task_rot/00_0.png","../static/human_exp_images/task_rot/00_1.png","../static/human_exp_images/task_rot/00_3.png"],"task":"response","correct_response":3,"shuffled_array":[2,0,1,3],"trial_type":"image-click","trial_index":4,"time_elapsed":7728,"internal_node_id":"0.0-4.0-0.0","mouse_tracking_data":[{"x":923,"y":485,"t":327,"event":"mousemove"},{"x":923,"y":483,"t":336,"event":"mousemove"},{"x":923,"y":482,"t":339,"event":"mousemove"},{"x":923,"y":480,"t":343,"event":"mousemove"},{"x":923,"y":479,"t":355,"event":"mousemove"},{"x":926,"y":478,"t":362,"event":"mousemove"},{"x":928,"y":478,"t":364,"event":"mousemove"},{"x":932,"y":478,"t":372,"event":"mousemove"},{"x":952,"y":478,"t":389,"event":"mousemove"},{"x":963,"y":478,"t":407,"event":"mousemove"},{"x":977,"y":478,"t":423,"event":"mousemove"},{"x":988,"y":490,"t":440,"event":"mousemove"},{"x":996,"y":503,"t":455,"event":"mousemove"},{"x":1005,"y":513,"t":473,"event":"mousemove"},{"x":1014,"y":519,"t":489,"event":"mousemove"},{"x":1023,"y":524,"t":506,"event":"mousemove"},{"x":1039,"y":529,"t":522,"event":"mousemove"},{"x":1051,"y":532,"t":539,"event":"mousemove"},{"x":1061,"y":535,"t":555,"event":"mousemove"},{"x":1069,"y":538,"t":572,"event":"mousemove"},{"x":1071,"y":540,"t":590,"event":"mousemove"},{"x":1072,"y":541,"t":606,"event":"mousemove"},{"x":1073,"y":543,"t":623,"event":"mousemove"}],"mouse_tracking_targets":{},"correct":true},{"rt":681,"stimulus":"<p>How confident are you about your choice ?</p>","slider_start":50,"response":50,"trial_type":"html-slider-response","trial_index":5,"time_elapsed":8412,"internal_node_id":"0.0-4.0-1.0"},{"rt":null,"stimulus":"\n        <div id='jspsych-image' style='position: relative; width: min(80vw, 80vh); height: min(80vw, 80vh);'>\n                \n                <div style='position: absolute; top: 40%; left: 30%; bottom: 40%; right: 30%;'><h1 style='font-size: 60px; color: green;'>Correct!</h1></div>\n                \n                <div class='jspsych-image' id='jspsych-image-0' data-choice='0' style='top: 0;     left: 0;'><img style=\"max-width: 100%; max-height: 100%;\" src='../static/human_exp_images/task_rot/00_2.png' class=''></img></div>\n                <div class='jspsych-image' id='jspsych-image-1' data-choice='1' style='top: 0;     right: 0;'><img style=\"max-width: 100%; max-height: 100%;\" src='../static/human_exp_images/task_rot/00_0.png' class=''></img></div>\n                <div class='jspsych-image' id='jspsych-image-2' data-choice='2' style='bottom: 0;  left: 0;'><img style=\"max-width: 100%; max-height: 100%;\" src='../static/human_exp_images/task_rot/00_1.png' class=''></img></div>\n                <div class='jspsych-image' id='jspsych-image-3' data-choice='3' style='bottom: 0;  right: 0;'><img style=\"max-width: 100%; max-height: 100%;\" src='../static/human_exp_images/task_rot/00_3.png' class='correct-choice'></img></div>\n\n        </div>","response":null,"trial_type":"html-keyboard-response","trial_index":6,"time_elapsed":9916,"internal_node_id":"0.0-4.0-2.0"},{"rt":1128,"stimulus":"<p>You responded correctly on 100% of the trials.</p>\n    <p>Your average response time was 701ms.</p>\n    <p>Press any key to complete the experiment. Thank you!</p>","response":" ","trial_type":"html-keyboard-response","trial_index":7,"time_elapsed":11048,"internal_node_id":"0.0-5.0","interactions":"[{\"event\":\"focus\",\"trial\":0,\"time\":1}]"}]