[{"success":true,"timeout":false,"failed_images":[],"failed_audio":[],"failed_video":[],"trial_type":"preload","trial_index":0,"time_elapsed":725,"internal_node_id":"0.0-0.0"},{"rt":1173,"stimulus":"<p style='font-size: 40px'>Welcome to the experiment.</p><p style='font-size: 30px'>Press any key to begin.</p>","response":"enter","trial_type":"html-keyboard-response","trial_index":1,"time_elapsed":1899,"internal_node_id":"0.0-1.0"},{"rt":4209,"stimulus":"\n    <p>In this experiment, 4 images will appear on the screen. 3 out of 4 images were generated with a certain rule while one image (the odd one out) does not respect this rule. Select the odd one out by clicking on the image.</p>\n    <p>Following your choice, you will be asked to rate how confident you were about your choice on a scale from 1 to 100. Then, you will receive feedback on the trial.</p>\n    <p>For each rule you will perform 20 trials. You will be notified at each rule change. </p>\n    <p> Press any button to continue </p>\n    <div style='margin: auto; position: relative; width: 400px; height: 400px;'>\n        <div style='position: absolute; top: 0;     left: 0; '><img src='../static/img/square.png'></img></div>\n        <div style='position: absolute; top: 0;     right: 0;'><img src='../static/img/square.png'></img></div>\n        <div style='position: absolute; bottom: 0;  left: 0; '><img src='../static/img/square.png'></img></div>\n        <div style='position: absolute; bottom: 0;  right: 0;'><img src='../static/img/square.png'></img></div>\n    </div>\n","response":" ","trial_type":"html-keyboard-response","trial_index":2,"time_elapsed":6112,"internal_node_id":"0.0-2.0"},{"rt":1364,"stimulus":"<h1 style='font-size: 60px'>New Rule!</h1> <p>Press any key to begin.</p>","response":" ","trial_type":"html-keyboard-response","trial_index":3,"time_elapsed":9479,"internal_node_id":"0.0-3.0"},{"rt":8701,"response":0,"all_choices":["../static/human_exp_images/task_pos/00_3.png","../static/human_exp_images/task_pos/00_1.png","../static/human_exp_images/task_pos/00_2.png","../static/human_exp_images/task_pos/00_0.png"],"task":"response","correct_response":0,"shuffled_array":[3,1,2,0],"trial_type":"image-click","trial_index":4,"time_elapsed":18186,"internal_node_id":"0.0-4.0-0.0","mouse_tracking_data":[{"x":941,"y":361,"t":1052,"event":"mousemove"},{"x":939,"y":361,"t":1062,"event":"mousemove"},{"x":939,"y":363,"t":1072,"event":"mousemove"},{"x":938,"y":363,"t":1076,"event":"mousemove"},{"x":936,"y":363,"t":1135,"event":"mousemove"},{"x":934,"y":363,"t":1236,"event":"mousemove"},{"x":934,"y":365,"t":1243,"event":"mousemove"},{"x":933,"y":365,"t":1247,"event":"mousemove"},{"x":931,"y":368,"t":1252,"event":"mousemove"},{"x":930,"y":368,"t":1253,"event":"mousemove"},{"x":925,"y":370,"t":1269,"event":"mousemove"},{"x":922,"y":374,"t":1286,"event":"mousemove"},{"x":920,"y":374,"t":2144,"event":"mousemove"},{"x":919,"y":374,"t":2151,"event":"mousemove"},{"x":918,"y":374,"t":2160,"event":"mousemove"},{"x":918,"y":375,"t":2345,"event":"mousemove"},{"x":918,"y":377,"t":2349,"event":"mousemove"},{"x":918,"y":379,"t":2355,"event":"mousemove"},{"x":918,"y":380,"t":2364,"event":"mousemove"},{"x":918,"y":381,"t":2381,"event":"mousemove"},{"x":918,"y":383,"t":2418,"event":"mousemove"},{"x":918,"y":385,"t":2431,"event":"mousemove"},{"x":918,"y":386,"t":2436,"event":"mousemove"},{"x":918,"y":388,"t":2445,"event":"mousemove"},{"x":918,"y":390,"t":2446,"event":"mousemove"},{"x":918,"y":392,"t":2463,"event":"mousemove"},{"x":918,"y":396,"t":2480,"event":"mousemove"},{"x":918,"y":401,"t":2496,"event":"mousemove"},{"x":918,"y":402,"t":2513,"event":"mousemove"},{"x":918,"y":403,"t":2530,"event":"mousemove"},{"x":918,"y":405,"t":2564,"event":"mousemove"},{"x":918,"y":407,"t":2583,"event":"mousemove"},{"x":918,"y":408,"t":2584,"event":"mousemove"},{"x":918,"y":412,"t":2601,"event":"mousemove"},{"x":918,"y":414,"t":2618,"event":"mousemove"},{"x":919,"y":418,"t":2634,"event":"mousemove"},{"x":920,"y":423,"t":2651,"event":"mousemove"},{"x":922,"y":425,"t":2667,"event":"mousemove"},{"x":922,"y":430,"t":2684,"event":"mousemove"},{"x":922,"y":434,"t":2701,"event":"mousemove"},{"x":924,"y":436,"t":2718,"event":"mousemove"},{"x":924,"y":439,"t":2735,"event":"mousemove"},{"x":925,"y":443,"t":2750,"event":"mousemove"},{"x":925,"y":446,"t":2767,"event":"mousemove"},{"x":925,"y":447,"t":2784,"event":"mousemove"},{"x":925,"y":449,"t":2802,"event":"mousemove"},{"x":925,"y":450,"t":2820,"event":"mousemove"},{"x":925,"y":452,"t":2838,"event":"mousemove"},{"x":924,"y":452,"t":2975,"event":"mousemove"},{"x":920,"y":452,"t":2978,"event":"mousemove"},{"x":916,"y":446,"t":2983,"event":"mousemove"},{"x":912,"y":442,"t":2989,"event":"mousemove"},{"x":907,"y":432,"t":2993,"event":"mousemove"},{"x":901,"y":424,"t":2994,"event":"mousemove"},{"x":886,"y":398,"t":3011,"event":"mousemove"},{"x":869,"y":347,"t":3027,"event":"mousemove"},{"x":861,"y":310,"t":3043,"event":"mousemove"},{"x":856,"y":292,"t":3061,"event":"mousemove"},{"x":855,"y":288,"t":3078,"event":"mousemove"},{"x":855,"y":287,"t":3093,"event":"mousemove"},{"x":853,"y":287,"t":3204,"event":"mousemove"},{"x":852,"y":287,"t":3232,"event":"mousemove"},{"x":851,"y":287,"t":3250,"event":"mousemove"},{"x":849,"y":287,"t":3267,"event":"mousemove"},{"x":847,"y":287,"t":3286,"event":"mousemove"},{"x":845,"y":287,"t":3295,"event":"mousemove"},{"x":844,"y":287,"t":3304,"event":"mousemove"},{"x":842,"y":287,"t":3323,"event":"mousemove"},{"x":841,"y":287,"t":3341,"event":"mousemove"},{"x":840,"y":287,"t":3368,"event":"mousemove"},{"x":838,"y":287,"t":3387,"event":"mousemove"},{"x":836,"y":287,"t":3404,"event":"mousemove"},{"x":835,"y":287,"t":3432,"event":"mousemove"},{"x":831,"y":287,"t":3440,"event":"mousemove"},{"x":830,"y":287,"t":3446,"event":"mousemove"},{"x":830,"y":288,"t":8093,"event":"mousemove"},{"x":830,"y":290,"t":8102,"event":"mousemove"},{"x":829,"y":290,"t":8141,"event":"mousemove"},{"x":824,"y":288,"t":8145,"event":"mousemove"},{"x":820,"y":284,"t":8147,"event":"mousemove"},{"x":793,"y":254,"t":8162,"event":"mousemove"},{"x":753,"y":222,"t":8181,"event":"mousemove"},{"x":729,"y":209,"t":8196,"event":"mousemove"},{"x":701,"y":192,"t":8213,"event":"mousemove"},{"x":680,"y":181,"t":8229,"event":"mousemove"},{"x":665,"y":170,"t":8247,"event":"mousemove"},{"x":655,"y":164,"t":8263,"event":"mousemove"},{"x":648,"y":161,"t":8279,"event":"mousemove"},{"x":642,"y":158,"t":8297,"event":"mousemove"},{"x":637,"y":157,"t":8312,"event":"mousemove"},{"x":635,"y":157,"t":8330,"event":"mousemove"},{"x":634,"y":157,"t":8346,"event":"mousemove"},{"x":633,"y":157,"t":8363,"event":"mousemove"}],"mouse_tracking_targets":{},"correct":true},{"rt":2377,"stimulus":"<p>How different confident are you about your choice ?</p>","slider_start":50,"response":71,"trial_type":"html-slider-response","trial_index":5,"time_elapsed":20564,"internal_node_id":"0.0-4.0-1.0"},{"rt":null,"stimulus":"\n        <div id='jspsych-image' style='position: relative; width: min(80vw, 80vh); height: min(80vw, 80vh);'>\n                \n                <div style='position: absolute; top: 40%; left: 30%; bottom: 40%; right: 30%;'><h1 style='font-size: 60px; color: green;'>Correct!</h1></div>\n                \n                <div class='jspsych-image' id='jspsych-image-0' data-choice='0' style='top: 0;     left: 0;'><img style=\"max-width: 100%; max-height: 100%;\" src='../static/human_exp_images/task_pos/00_3.png' class='correct-choice'></img></div>\n                <div class='jspsych-image' id='jspsych-image-1' data-choice='1' style='top: 0;     right: 0;'><img style=\"max-width: 100%; max-height: 100%;\" src='../static/human_exp_images/task_pos/00_1.png' class=''></img></div>\n                <div class='jspsych-image' id='jspsych-image-2' data-choice='2' style='bottom: 0;  left: 0;'><img style=\"max-width: 100%; max-height: 100%;\" src='../static/human_exp_images/task_pos/00_2.png' class=''></img></div>\n                <div class='jspsych-image' id='jspsych-image-3' data-choice='3' style='bottom: 0;  right: 0;'><img style=\"max-width: 100%; max-height: 100%;\" src='../static/human_exp_images/task_pos/00_0.png' class=''></img></div>\n\n        </div>","response":null,"trial_type":"html-keyboard-response","trial_index":6,"time_elapsed":22068,"internal_node_id":"0.0-4.0-2.0"},{"rt":4988,"response":1,"all_choices":["../static/human_exp_images/task_pos/01_0.png","../static/human_exp_images/task_pos/01_3.png","../static/human_exp_images/task_pos/01_1.png","../static/human_exp_images/task_pos/01_2.png"],"task":"response","correct_response":1,"shuffled_array":[0,3,1,2],"trial_type":"image-click","trial_index":7,"time_elapsed":27059,"internal_node_id":"0.0-4.0-0.1","mouse_tracking_data":[{"x":945,"y":472,"t":18,"event":"mousemove"},{"x":945,"y":470,"t":36,"event":"mousemove"},{"x":945,"y":469,"t":65,"event":"mousemove"},{"x":945,"y":468,"t":93,"event":"mousemove"},{"x":945,"y":466,"t":105,"event":"mousemove"},{"x":947,"y":464,"t":113,"event":"mousemove"},{"x":952,"y":447,"t":130,"event":"mousemove"},{"x":960,"y":417,"t":147,"event":"mousemove"},{"x":967,"y":386,"t":163,"event":"mousemove"},{"x":972,"y":362,"t":180,"event":"mousemove"},{"x":972,"y":346,"t":196,"event":"mousemove"},{"x":972,"y":341,"t":214,"event":"mousemove"},{"x":971,"y":341,"t":1754,"event":"mousemove"},{"x":971,"y":340,"t":3771,"event":"mousemove"},{"x":971,"y":338,"t":3872,"event":"mousemove"},{"x":971,"y":336,"t":3926,"event":"mousemove"},{"x":971,"y":336,"t":3944,"event":"mousemove"},{"x":973,"y":334,"t":3947,"event":"mousemove"},{"x":974,"y":332,"t":3952,"event":"mousemove"},{"x":975,"y":332,"t":3957,"event":"mousemove"},{"x":977,"y":330,"t":3960,"event":"mousemove"},{"x":978,"y":329,"t":3971,"event":"mousemove"},{"x":978,"y":327,"t":3973,"event":"mousemove"},{"x":982,"y":325,"t":3989,"event":"mousemove"},{"x":984,"y":325,"t":4007,"event":"mousemove"},{"x":985,"y":323,"t":4025,"event":"mousemove"},{"x":985,"y":321,"t":4045,"event":"mousemove"},{"x":986,"y":319,"t":4064,"event":"mousemove"},{"x":988,"y":318,"t":4071,"event":"mousemove"},{"x":989,"y":316,"t":4074,"event":"mousemove"},{"x":997,"y":310,"t":4090,"event":"mousemove"},{"x":1002,"y":303,"t":4107,"event":"mousemove"},{"x":1006,"y":299,"t":4123,"event":"mousemove"},{"x":1008,"y":296,"t":4140,"event":"mousemove"},{"x":1010,"y":294,"t":4156,"event":"mousemove"},{"x":1010,"y":292,"t":4173,"event":"mousemove"},{"x":1010,"y":292,"t":4191,"event":"mousemove"},{"x":1011,"y":292,"t":4325,"event":"mousemove"},{"x":1013,"y":292,"t":4482,"event":"mousemove"},{"x":1013,"y":290,"t":4519,"event":"mousemove"},{"x":1015,"y":290,"t":4521,"event":"mousemove"},{"x":1021,"y":287,"t":4538,"event":"mousemove"},{"x":1030,"y":279,"t":4554,"event":"mousemove"},{"x":1033,"y":277,"t":4570,"event":"mousemove"},{"x":1038,"y":272,"t":4587,"event":"mousemove"},{"x":1050,"y":266,"t":4604,"event":"mousemove"},{"x":1056,"y":261,"t":4620,"event":"mousemove"},{"x":1061,"y":258,"t":4638,"event":"mousemove"},{"x":1062,"y":255,"t":4655,"event":"mousemove"},{"x":1082,"y":229,"t":4671,"event":"mousemove"},{"x":1090,"y":214,"t":4687,"event":"mousemove"},{"x":1105,"y":190,"t":4704,"event":"mousemove"},{"x":1118,"y":167,"t":4720,"event":"mousemove"},{"x":1124,"y":153,"t":4737,"event":"mousemove"},{"x":1126,"y":150,"t":4755,"event":"mousemove"},{"x":1126,"y":149,"t":4770,"event":"mousemove"}],"mouse_tracking_targets":{},"correct":true},{"rt":2399,"stimulus":"<p>How different confident are you about your choice ?</p>","slider_start":50,"response":69,"trial_type":"html-slider-response","trial_index":8,"time_elapsed":29461,"internal_node_id":"0.0-4.0-1.1"},{"rt":null,"stimulus":"\n        <div id='jspsych-image' style='position: relative; width: min(80vw, 80vh); height: min(80vw, 80vh);'>\n                \n                <div style='position: absolute; top: 40%; left: 30%; bottom: 40%; right: 30%;'><h1 style='font-size: 60px; color: green;'>Correct!</h1></div>\n                \n                <div class='jspsych-image' id='jspsych-image-0' data-choice='0' style='top: 0;     left: 0;'><img style=\"max-width: 100%; max-height: 100%;\" src='../static/human_exp_images/task_pos/01_0.png' class=''></img></div>\n                <div class='jspsych-image' id='jspsych-image-1' data-choice='1' style='top: 0;     right: 0;'><img style=\"max-width: 100%; max-height: 100%;\" src='../static/human_exp_images/task_pos/01_3.png' class='correct-choice'></img></div>\n                <div class='jspsych-image' id='jspsych-image-2' data-choice='2' style='bottom: 0;  left: 0;'><img style=\"max-width: 100%; max-height: 100%;\" src='../static/human_exp_images/task_pos/01_1.png' class=''></img></div>\n                <div class='jspsych-image' id='jspsych-image-3' data-choice='3' style='bottom: 0;  right: 0;'><img style=\"max-width: 100%; max-height: 100%;\" src='../static/human_exp_images/task_pos/01_2.png' class=''></img></div>\n\n        </div>","response":null,"trial_type":"html-keyboard-response","trial_index":9,"time_elapsed":30965,"internal_node_id":"0.0-4.0-2.1"},{"rt":2755,"response":0,"all_choices":["../static/human_exp_images/task_pos/02_3.png","../static/human_exp_images/task_pos/02_2.png","../static/human_exp_images/task_pos/02_1.png","../static/human_exp_images/task_pos/02_0.png"],"task":"response","correct_response":0,"shuffled_array":[3,2,1,0],"trial_type":"image-click","trial_index":10,"time_elapsed":33722,"internal_node_id":"0.0-4.0-0.2","mouse_tracking_data":[{"x":940,"y":230,"t":124,"event":"mousemove"},{"x":936,"y":235,"t":131,"event":"mousemove"},{"x":923,"y":251,"t":147,"event":"mousemove"},{"x":919,"y":263,"t":164,"event":"mousemove"},{"x":912,"y":270,"t":181,"event":"mousemove"},{"x":906,"y":281,"t":198,"event":"mousemove"},{"x":903,"y":290,"t":214,"event":"mousemove"},{"x":901,"y":294,"t":231,"event":"mousemove"},{"x":901,"y":295,"t":248,"event":"mousemove"},{"x":901,"y":297,"t":322,"event":"mousemove"},{"x":901,"y":299,"t":327,"event":"mousemove"},{"x":901,"y":301,"t":331,"event":"mousemove"},{"x":901,"y":302,"t":336,"event":"mousemove"},{"x":901,"y":303,"t":337,"event":"mousemove"},{"x":901,"y":310,"t":353,"event":"mousemove"},{"x":901,"y":313,"t":371,"event":"mousemove"},{"x":901,"y":319,"t":387,"event":"mousemove"},{"x":901,"y":324,"t":404,"event":"mousemove"},{"x":901,"y":327,"t":420,"event":"mousemove"},{"x":901,"y":328,"t":437,"event":"mousemove"},{"x":901,"y":330,"t":455,"event":"mousemove"},{"x":901,"y":332,"t":472,"event":"mousemove"},{"x":901,"y":330,"t":871,"event":"mousemove"},{"x":901,"y":329,"t":875,"event":"mousemove"},{"x":901,"y":324,"t":878,"event":"mousemove"},{"x":901,"y":323,"t":879,"event":"mousemove"},{"x":901,"y":314,"t":895,"event":"mousemove"},{"x":901,"y":310,"t":913,"event":"mousemove"},{"x":901,"y":307,"t":928,"event":"mousemove"},{"x":901,"y":303,"t":946,"event":"mousemove"},{"x":901,"y":302,"t":962,"event":"mousemove"},{"x":901,"y":301,"t":980,"event":"mousemove"},{"x":901,"y":299,"t":995,"event":"mousemove"},{"x":901,"y":297,"t":1012,"event":"mousemove"},{"x":901,"y":296,"t":1031,"event":"mousemove"},{"x":901,"y":294,"t":1050,"event":"mousemove"},{"x":901,"y":292,"t":1068,"event":"mousemove"},{"x":901,"y":290,"t":1096,"event":"mousemove"},{"x":901,"y":285,"t":1105,"event":"mousemove"},{"x":901,"y":283,"t":1109,"event":"mousemove"},{"x":897,"y":279,"t":1113,"event":"mousemove"},{"x":897,"y":277,"t":1114,"event":"mousemove"},{"x":897,"y":270,"t":1130,"event":"mousemove"},{"x":893,"y":262,"t":1147,"event":"mousemove"},{"x":890,"y":258,"t":1163,"event":"mousemove"},{"x":890,"y":255,"t":1180,"event":"mousemove"},{"x":888,"y":251,"t":1197,"event":"mousemove"},{"x":886,"y":250,"t":1214,"event":"mousemove"},{"x":886,"y":248,"t":1231,"event":"mousemove"},{"x":884,"y":248,"t":1250,"event":"mousemove"},{"x":884,"y":247,"t":1259,"event":"mousemove"},{"x":882,"y":247,"t":1268,"event":"mousemove"},{"x":882,"y":245,"t":1277,"event":"mousemove"},{"x":880,"y":245,"t":1294,"event":"mousemove"},{"x":879,"y":245,"t":1313,"event":"mousemove"},{"x":877,"y":244,"t":1331,"event":"mousemove"},{"x":875,"y":244,"t":1341,"event":"mousemove"},{"x":873,"y":242,"t":1349,"event":"mousemove"},{"x":871,"y":240,"t":1352,"event":"mousemove"},{"x":869,"y":240,"t":1358,"event":"mousemove"},{"x":869,"y":239,"t":1362,"event":"mousemove"},{"x":868,"y":239,"t":1367,"event":"mousemove"},{"x":866,"y":239,"t":1372,"event":"mousemove"},{"x":864,"y":239,"t":1378,"event":"mousemove"},{"x":864,"y":237,"t":1386,"event":"mousemove"},{"x":864,"y":237,"t":1388,"event":"mousemove"},{"x":862,"y":237,"t":1405,"event":"mousemove"},{"x":860,"y":237,"t":1431,"event":"mousemove"},{"x":859,"y":237,"t":1450,"event":"mousemove"},{"x":857,"y":236,"t":1468,"event":"mousemove"},{"x":857,"y":235,"t":1906,"event":"mousemove"},{"x":857,"y":233,"t":1925,"event":"mousemove"},{"x":857,"y":231,"t":1970,"event":"mousemove"},{"x":857,"y":230,"t":1989,"event":"mousemove"},{"x":857,"y":228,"t":2006,"event":"mousemove"},{"x":857,"y":226,"t":2053,"event":"mousemove"},{"x":857,"y":225,"t":2079,"event":"mousemove"},{"x":857,"y":224,"t":2088,"event":"mousemove"},{"x":857,"y":222,"t":2089,"event":"mousemove"},{"x":857,"y":217,"t":2105,"event":"mousemove"},{"x":857,"y":213,"t":2123,"event":"mousemove"},{"x":857,"y":211,"t":2139,"event":"mousemove"},{"x":857,"y":209,"t":2156,"event":"mousemove"},{"x":857,"y":208,"t":2172,"event":"mousemove"},{"x":857,"y":206,"t":2189,"event":"mousemove"},{"x":857,"y":204,"t":2216,"event":"mousemove"},{"x":857,"y":204,"t":2272,"event":"mousemove"},{"x":857,"y":202,"t":2281,"event":"mousemove"},{"x":857,"y":197,"t":2289,"event":"mousemove"},{"x":857,"y":195,"t":2292,"event":"mousemove"},{"x":857,"y":189,"t":2307,"event":"mousemove"},{"x":853,"y":184,"t":2325,"event":"mousemove"},{"x":849,"y":178,"t":2341,"event":"mousemove"},{"x":842,"y":171,"t":2358,"event":"mousemove"},{"x":835,"y":167,"t":2374,"event":"mousemove"},{"x":829,"y":162,"t":2391,"event":"mousemove"},{"x":816,"y":158,"t":2408,"event":"mousemove"},{"x":807,"y":153,"t":2425,"event":"mousemove"},{"x":799,"y":151,"t":2440,"event":"mousemove"},{"x":788,"y":149,"t":2458,"event":"mousemove"},{"x":778,"y":147,"t":2475,"event":"mousemove"},{"x":769,"y":147,"t":2491,"event":"mousemove"},{"x":756,"y":144,"t":2507,"event":"mousemove"},{"x":749,"y":144,"t":2524,"event":"mousemove"},{"x":740,"y":144,"t":2541,"event":"mousemove"},{"x":732,"y":144,"t":2557,"event":"mousemove"},{"x":724,"y":144,"t":2575,"event":"mousemove"},{"x":716,"y":144,"t":2590,"event":"mousemove"},{"x":711,"y":144,"t":2608,"event":"mousemove"},{"x":708,"y":144,"t":2624,"event":"mousemove"},{"x":705,"y":144,"t":2641,"event":"mousemove"},{"x":703,"y":144,"t":2657,"event":"mousemove"},{"x":702,"y":144,"t":2675,"event":"mousemove"},{"x":700,"y":144,"t":2691,"event":"mousemove"}],"mouse_tracking_targets":{},"correct":true},{"rt":1848,"stimulus":"<p>How different confident are you about your choice ?</p>","slider_start":50,"response":100,"trial_type":"html-slider-response","trial_index":11,"time_elapsed":35572,"internal_node_id":"0.0-4.0-1.2"},{"rt":null,"stimulus":"\n        <div id='jspsych-image' style='position: relative; width: min(80vw, 80vh); height: min(80vw, 80vh);'>\n                \n                <div style='position: absolute; top: 40%; left: 30%; bottom: 40%; right: 30%;'><h1 style='font-size: 60px; color: green;'>Correct!</h1></div>\n                \n                <div class='jspsych-image' id='jspsych-image-0' data-choice='0' style='top: 0;     left: 0;'><img style=\"max-width: 100%; max-height: 100%;\" src='../static/human_exp_images/task_pos/02_3.png' class='correct-choice'></img></div>\n                <div class='jspsych-image' id='jspsych-image-1' data-choice='1' style='top: 0;     right: 0;'><img style=\"max-width: 100%; max-height: 100%;\" src='../static/human_exp_images/task_pos/02_2.png' class=''></img></div>\n                <div class='jspsych-image' id='jspsych-image-2' data-choice='2' style='bottom: 0;  left: 0;'><img style=\"max-width: 100%; max-height: 100%;\" src='../static/human_exp_images/task_pos/02_1.png' class=''></img></div>\n                <div class='jspsych-image' id='jspsych-image-3' data-choice='3' style='bottom: 0;  right: 0;'><img style=\"max-width: 100%; max-height: 100%;\" src='../static/human_exp_images/task_pos/02_0.png' class=''></img></div>\n\n        </div>","response":null,"trial_type":"html-keyboard-response","trial_index":12,"time_elapsed":37075,"internal_node_id":"0.0-4.0-2.2"},{"rt":4677,"response":2,"all_choices":["../static/human_exp_images/task_pos/03_1.png","../static/human_exp_images/task_pos/03_2.png","../static/human_exp_images/task_pos/03_3.png","../static/human_exp_images/task_pos/03_0.png"],"task":"response","correct_response":2,"shuffled_array":[1,2,3,0],"trial_type":"image-click","trial_index":13,"time_elapsed":41755,"internal_node_id":"0.0-4.0-0.3","mouse_tracking_data":[{"x":892,"y":479,"t":4158,"event":"mousemove"},{"x":890,"y":479,"t":4160,"event":"mousemove"},{"x":876,"y":484,"t":4176,"event":"mousemove"},{"x":868,"y":488,"t":4193,"event":"mousemove"},{"x":861,"y":492,"t":4210,"event":"mousemove"},{"x":853,"y":494,"t":4227,"event":"mousemove"},{"x":848,"y":497,"t":4242,"event":"mousemove"},{"x":843,"y":499,"t":4259,"event":"mousemove"},{"x":840,"y":503,"t":4276,"event":"mousemove"},{"x":835,"y":508,"t":4293,"event":"mousemove"},{"x":830,"y":512,"t":4311,"event":"mousemove"},{"x":823,"y":517,"t":4326,"event":"mousemove"},{"x":815,"y":522,"t":4343,"event":"mousemove"},{"x":804,"y":530,"t":4359,"event":"mousemove"},{"x":792,"y":536,"t":4377,"event":"mousemove"},{"x":782,"y":541,"t":4393,"event":"mousemove"},{"x":773,"y":544,"t":4411,"event":"mousemove"},{"x":759,"y":548,"t":4426,"event":"mousemove"},{"x":746,"y":553,"t":4444,"event":"mousemove"},{"x":732,"y":556,"t":4459,"event":"mousemove"},{"x":722,"y":559,"t":4477,"event":"mousemove"},{"x":711,"y":564,"t":4493,"event":"mousemove"},{"x":706,"y":567,"t":4510,"event":"mousemove"},{"x":698,"y":570,"t":4527,"event":"mousemove"},{"x":691,"y":575,"t":4543,"event":"mousemove"},{"x":687,"y":579,"t":4560,"event":"mousemove"},{"x":684,"y":581,"t":4576,"event":"mousemove"},{"x":682,"y":581,"t":4594,"event":"mousemove"},{"x":680,"y":583,"t":4610,"event":"mousemove"}],"mouse_tracking_targets":{},"correct":true},{"rt":2905,"stimulus":"<p>How different confident are you about your choice ?</p>","slider_start":50,"response":87,"trial_type":"html-slider-response","trial_index":14,"time_elapsed":44663,"internal_node_id":"0.0-4.0-1.3"},{"rt":null,"stimulus":"\n        <div id='jspsych-image' style='position: relative; width: min(80vw, 80vh); height: min(80vw, 80vh);'>\n                \n                <div style='position: absolute; top: 40%; left: 30%; bottom: 40%; right: 30%;'><h1 style='font-size: 60px; color: green;'>Correct!</h1></div>\n                \n                <div class='jspsych-image' id='jspsych-image-0' data-choice='0' style='top: 0;     left: 0;'><img style=\"max-width: 100%; max-height: 100%;\" src='../static/human_exp_images/task_pos/03_1.png' class=''></img></div>\n                <div class='jspsych-image' id='jspsych-image-1' data-choice='1' style='top: 0;     right: 0;'><img style=\"max-width: 100%; max-height: 100%;\" src='../static/human_exp_images/task_pos/03_2.png' class=''></img></div>\n                <div class='jspsych-image' id='jspsych-image-2' data-choice='2' style='bottom: 0;  left: 0;'><img style=\"max-width: 100%; max-height: 100%;\" src='../static/human_exp_images/task_pos/03_3.png' class='correct-choice'></img></div>\n                <div class='jspsych-image' id='jspsych-image-3' data-choice='3' style='bottom: 0;  right: 0;'><img style=\"max-width: 100%; max-height: 100%;\" src='../static/human_exp_images/task_pos/03_0.png' class=''></img></div>\n\n        </div>","response":null,"trial_type":"html-keyboard-response","trial_index":15,"time_elapsed":46164,"internal_node_id":"0.0-4.0-2.3"},{"rt":2463,"response":2,"all_choices":["../static/human_exp_images/task_pos/04_2.png","../static/human_exp_images/task_pos/04_1.png","../static/human_exp_images/task_pos/04_3.png","../static/human_exp_images/task_pos/04_0.png"],"task":"response","correct_response":2,"shuffled_array":[2,1,3,0],"trial_type":"image-click","trial_index":16,"time_elapsed":48629,"internal_node_id":"0.0-4.0-0.4","mouse_tracking_data":[{"x":889,"y":349,"t":578,"event":"mousemove"},{"x":889,"y":351,"t":584,"event":"mousemove"},{"x":889,"y":353,"t":593,"event":"mousemove"},{"x":889,"y":354,"t":601,"event":"mousemove"},{"x":889,"y":356,"t":602,"event":"mousemove"},{"x":889,"y":358,"t":619,"event":"mousemove"},{"x":889,"y":364,"t":636,"event":"mousemove"},{"x":889,"y":369,"t":652,"event":"mousemove"},{"x":889,"y":373,"t":670,"event":"mousemove"},{"x":889,"y":376,"t":685,"event":"mousemove"},{"x":889,"y":378,"t":703,"event":"mousemove"},{"x":889,"y":380,"t":718,"event":"mousemove"},{"x":889,"y":384,"t":736,"event":"mousemove"},{"x":889,"y":387,"t":752,"event":"mousemove"},{"x":889,"y":391,"t":770,"event":"mousemove"},{"x":887,"y":395,"t":786,"event":"mousemove"},{"x":887,"y":398,"t":802,"event":"mousemove"},{"x":887,"y":402,"t":819,"event":"mousemove"},{"x":887,"y":402,"t":838,"event":"mousemove"},{"x":887,"y":404,"t":857,"event":"mousemove"},{"x":887,"y":406,"t":875,"event":"mousemove"},{"x":887,"y":407,"t":883,"event":"mousemove"},{"x":887,"y":409,"t":893,"event":"mousemove"},{"x":887,"y":411,"t":911,"event":"mousemove"},{"x":887,"y":412,"t":937,"event":"mousemove"},{"x":887,"y":413,"t":967,"event":"mousemove"},{"x":887,"y":415,"t":976,"event":"mousemove"},{"x":887,"y":417,"t":983,"event":"mousemove"},{"x":884,"y":417,"t":1860,"event":"mousemove"},{"x":882,"y":417,"t":1861,"event":"mousemove"},{"x":875,"y":417,"t":1878,"event":"mousemove"},{"x":853,"y":417,"t":1895,"event":"mousemove"},{"x":843,"y":420,"t":1910,"event":"mousemove"},{"x":829,"y":426,"t":1927,"event":"mousemove"},{"x":817,"y":435,"t":1944,"event":"mousemove"},{"x":808,"y":445,"t":1961,"event":"mousemove"},{"x":798,"y":455,"t":1977,"event":"mousemove"},{"x":788,"y":467,"t":1995,"event":"mousemove"},{"x":779,"y":479,"t":2011,"event":"mousemove"},{"x":771,"y":492,"t":2027,"event":"mousemove"},{"x":764,"y":508,"t":2045,"event":"mousemove"},{"x":757,"y":522,"t":2061,"event":"mousemove"},{"x":751,"y":532,"t":2078,"event":"mousemove"},{"x":747,"y":539,"t":2094,"event":"mousemove"},{"x":742,"y":547,"t":2111,"event":"mousemove"},{"x":736,"y":553,"t":2129,"event":"mousemove"},{"x":732,"y":559,"t":2145,"event":"mousemove"},{"x":726,"y":569,"t":2161,"event":"mousemove"},{"x":721,"y":572,"t":2178,"event":"mousemove"},{"x":713,"y":581,"t":2195,"event":"mousemove"},{"x":705,"y":589,"t":2211,"event":"mousemove"},{"x":696,"y":597,"t":2228,"event":"mousemove"},{"x":688,"y":603,"t":2244,"event":"mousemove"},{"x":682,"y":606,"t":2262,"event":"mousemove"},{"x":678,"y":610,"t":2278,"event":"mousemove"},{"x":676,"y":610,"t":2295,"event":"mousemove"},{"x":674,"y":610,"t":2312,"event":"mousemove"},{"x":672,"y":610,"t":2329,"event":"mousemove"}],"mouse_tracking_targets":{},"correct":true},{"rt":1914,"stimulus":"<p>How different confident are you about your choice ?</p>","slider_start":50,"response":86,"trial_type":"html-slider-response","trial_index":17,"time_elapsed":50545,"internal_node_id":"0.0-4.0-1.4"},{"rt":null,"stimulus":"\n        <div id='jspsych-image' style='position: relative; width: min(80vw, 80vh); height: min(80vw, 80vh);'>\n                \n                <div style='position: absolute; top: 40%; left: 30%; bottom: 40%; right: 30%;'><h1 style='font-size: 60px; color: green;'>Correct!</h1></div>\n                \n                <div class='jspsych-image' id='jspsych-image-0' data-choice='0' style='top: 0;     left: 0;'><img style=\"max-width: 100%; max-height: 100%;\" src='../static/human_exp_images/task_pos/04_2.png' class=''></img></div>\n                <div class='jspsych-image' id='jspsych-image-1' data-choice='1' style='top: 0;     right: 0;'><img style=\"max-width: 100%; max-height: 100%;\" src='../static/human_exp_images/task_pos/04_1.png' class=''></img></div>\n                <div class='jspsych-image' id='jspsych-image-2' data-choice='2' style='bottom: 0;  left: 0;'><img style=\"max-width: 100%; max-height: 100%;\" src='../static/human_exp_images/task_pos/04_3.png' class='correct-choice'></img></div>\n                <div class='jspsych-image' id='jspsych-image-3' data-choice='3' style='bottom: 0;  right: 0;'><img style=\"max-width: 100%; max-height: 100%;\" src='../static/human_exp_images/task_pos/04_0.png' class=''></img></div>\n\n        </div>","response":null,"trial_type":"html-keyboard-response","trial_index":18,"time_elapsed":52047,"internal_node_id":"0.0-4.0-2.4"},{"rt":3523,"response":1,"all_choices":["../static/human_exp_images/task_pos/05_0.png","../static/human_exp_images/task_pos/05_3.png","../static/human_exp_images/task_pos/05_1.png","../static/human_exp_images/task_pos/05_2.png"],"task":"response","correct_response":1,"shuffled_array":[0,3,1,2],"trial_type":"image-click","trial_index":19,"time_elapsed":55572,"internal_node_id":"0.0-4.0-0.5","mouse_tracking_data":[{"x":889,"y":532,"t":4,"event":"mousemove"},{"x":896,"y":527,"t":20,"event":"mousemove"},{"x":898,"y":523,"t":37,"event":"mousemove"},{"x":902,"y":520,"t":53,"event":"mousemove"},{"x":903,"y":518,"t":70,"event":"mousemove"},{"x":903,"y":516,"t":87,"event":"mousemove"},{"x":905,"y":516,"t":103,"event":"mousemove"},{"x":905,"y":514,"t":119,"event":"mousemove"},{"x":905,"y":513,"t":137,"event":"mousemove"},{"x":907,"y":512,"t":187,"event":"mousemove"},{"x":907,"y":510,"t":217,"event":"mousemove"},{"x":908,"y":509,"t":225,"event":"mousemove"},{"x":911,"y":505,"t":233,"event":"mousemove"},{"x":913,"y":503,"t":236,"event":"mousemove"},{"x":914,"y":501,"t":242,"event":"mousemove"},{"x":916,"y":499,"t":246,"event":"mousemove"},{"x":918,"y":496,"t":250,"event":"mousemove"},{"x":919,"y":494,"t":260,"event":"mousemove"},{"x":920,"y":493,"t":262,"event":"mousemove"},{"x":920,"y":491,"t":277,"event":"mousemove"},{"x":922,"y":488,"t":295,"event":"mousemove"},{"x":922,"y":487,"t":311,"event":"mousemove"},{"x":922,"y":485,"t":328,"event":"mousemove"},{"x":922,"y":483,"t":345,"event":"mousemove"},{"x":922,"y":482,"t":361,"event":"mousemove"},{"x":922,"y":480,"t":412,"event":"mousemove"},{"x":922,"y":479,"t":440,"event":"mousemove"},{"x":922,"y":477,"t":467,"event":"mousemove"},{"x":922,"y":476,"t":468,"event":"mousemove"},{"x":922,"y":474,"t":485,"event":"mousemove"},{"x":922,"y":465,"t":502,"event":"mousemove"},{"x":922,"y":457,"t":518,"event":"mousemove"},{"x":920,"y":449,"t":535,"event":"mousemove"},{"x":916,"y":445,"t":551,"event":"mousemove"},{"x":913,"y":439,"t":568,"event":"mousemove"},{"x":911,"y":438,"t":585,"event":"mousemove"},{"x":908,"y":438,"t":601,"event":"mousemove"},{"x":908,"y":436,"t":619,"event":"mousemove"},{"x":907,"y":435,"t":635,"event":"mousemove"},{"x":905,"y":435,"t":652,"event":"mousemove"},{"x":903,"y":435,"t":670,"event":"mousemove"},{"x":902,"y":435,"t":688,"event":"mousemove"},{"x":900,"y":435,"t":705,"event":"mousemove"},{"x":900,"y":434,"t":735,"event":"mousemove"},{"x":898,"y":434,"t":742,"event":"mousemove"},{"x":898,"y":432,"t":771,"event":"mousemove"},{"x":897,"y":432,"t":2829,"event":"mousemove"},{"x":897,"y":430,"t":2932,"event":"mousemove"},{"x":897,"y":425,"t":2935,"event":"mousemove"},{"x":897,"y":422,"t":2936,"event":"mousemove"},{"x":897,"y":409,"t":2952,"event":"mousemove"},{"x":904,"y":390,"t":2970,"event":"mousemove"},{"x":908,"y":375,"t":2985,"event":"mousemove"},{"x":914,"y":362,"t":3002,"event":"mousemove"},{"x":919,"y":353,"t":3018,"event":"mousemove"},{"x":922,"y":343,"t":3036,"event":"mousemove"},{"x":927,"y":336,"t":3052,"event":"mousemove"},{"x":928,"y":329,"t":3068,"event":"mousemove"},{"x":933,"y":320,"t":3086,"event":"mousemove"},{"x":938,"y":312,"t":3102,"event":"mousemove"},{"x":945,"y":299,"t":3119,"event":"mousemove"},{"x":950,"y":292,"t":3135,"event":"mousemove"},{"x":956,"y":285,"t":3152,"event":"mousemove"},{"x":963,"y":276,"t":3170,"event":"mousemove"},{"x":969,"y":266,"t":3186,"event":"mousemove"},{"x":975,"y":259,"t":3203,"event":"mousemove"},{"x":985,"y":248,"t":3219,"event":"mousemove"},{"x":997,"y":234,"t":3236,"event":"mousemove"},{"x":1011,"y":214,"t":3252,"event":"mousemove"},{"x":1025,"y":196,"t":3269,"event":"mousemove"},{"x":1035,"y":185,"t":3287,"event":"mousemove"},{"x":1043,"y":174,"t":3302,"event":"mousemove"},{"x":1050,"y":168,"t":3320,"event":"mousemove"},{"x":1054,"y":165,"t":3336,"event":"mousemove"},{"x":1055,"y":162,"t":3353,"event":"mousemove"},{"x":1057,"y":162,"t":3369,"event":"mousemove"},{"x":1059,"y":162,"t":3404,"event":"mousemove"},{"x":1061,"y":162,"t":3442,"event":"mousemove"}],"mouse_tracking_targets":{},"correct":true},{"rt":1983,"stimulus":"<p>How different confident are you about your choice ?</p>","slider_start":50,"response":82,"trial_type":"html-slider-response","trial_index":20,"time_elapsed":57558,"internal_node_id":"0.0-4.0-1.5"},{"rt":null,"stimulus":"\n        <div id='jspsych-image' style='position: relative; width: min(80vw, 80vh); height: min(80vw, 80vh);'>\n                \n                <div style='position: absolute; top: 40%; left: 30%; bottom: 40%; right: 30%;'><h1 style='font-size: 60px; color: green;'>Correct!</h1></div>\n                \n                <div class='jspsych-image' id='jspsych-image-0' data-choice='0' style='top: 0;     left: 0;'><img style=\"max-width: 100%; max-height: 100%;\" src='../static/human_exp_images/task_pos/05_0.png' class=''></img></div>\n                <div class='jspsych-image' id='jspsych-image-1' data-choice='1' style='top: 0;     right: 0;'><img style=\"max-width: 100%; max-height: 100%;\" src='../static/human_exp_images/task_pos/05_3.png' class='correct-choice'></img></div>\n                <div class='jspsych-image' id='jspsych-image-2' data-choice='2' style='bottom: 0;  left: 0;'><img style=\"max-width: 100%; max-height: 100%;\" src='../static/human_exp_images/task_pos/05_1.png' class=''></img></div>\n                <div class='jspsych-image' id='jspsych-image-3' data-choice='3' style='bottom: 0;  right: 0;'><img style=\"max-width: 100%; max-height: 100%;\" src='../static/human_exp_images/task_pos/05_2.png' class=''></img></div>\n\n        </div>","response":null,"trial_type":"html-keyboard-response","trial_index":21,"time_elapsed":59061,"internal_node_id":"0.0-4.0-2.5"},{"rt":4614,"response":0,"all_choices":["../static/human_exp_images/task_pos/06_3.png","../static/human_exp_images/task_pos/06_0.png","../static/human_exp_images/task_pos/06_1.png","../static/human_exp_images/task_pos/06_2.png"],"task":"response","correct_response":0,"shuffled_array":[3,0,1,2],"trial_type":"image-click","trial_index":22,"time_elapsed":63678,"internal_node_id":"0.0-4.0-0.6","mouse_tracking_data":[{"x":867,"y":546,"t":320,"event":"mousemove"},{"x":867,"y":545,"t":374,"event":"mousemove"},{"x":867,"y":544,"t":401,"event":"mousemove"},{"x":867,"y":542,"t":408,"event":"mousemove"},{"x":867,"y":540,"t":410,"event":"mousemove"},{"x":867,"y":537,"t":419,"event":"mousemove"},{"x":867,"y":535,"t":422,"event":"mousemove"},{"x":867,"y":533,"t":428,"event":"mousemove"},{"x":867,"y":529,"t":432,"event":"mousemove"},{"x":867,"y":526,"t":438,"event":"mousemove"},{"x":867,"y":524,"t":440,"event":"mousemove"},{"x":869,"y":520,"t":455,"event":"mousemove"},{"x":876,"y":512,"t":472,"event":"mousemove"},{"x":885,"y":504,"t":489,"event":"mousemove"},{"x":892,"y":496,"t":506,"event":"mousemove"},{"x":896,"y":491,"t":521,"event":"mousemove"},{"x":898,"y":489,"t":539,"event":"mousemove"},{"x":900,"y":489,"t":555,"event":"mousemove"},{"x":901,"y":487,"t":573,"event":"mousemove"},{"x":901,"y":485,"t":589,"event":"mousemove"},{"x":905,"y":482,"t":606,"event":"mousemove"},{"x":914,"y":468,"t":623,"event":"mousemove"},{"x":927,"y":444,"t":639,"event":"mousemove"},{"x":940,"y":413,"t":655,"event":"mousemove"},{"x":945,"y":386,"t":673,"event":"mousemove"},{"x":950,"y":374,"t":689,"event":"mousemove"},{"x":950,"y":371,"t":705,"event":"mousemove"},{"x":950,"y":369,"t":723,"event":"mousemove"},{"x":946,"y":369,"t":2555,"event":"mousemove"},{"x":943,"y":368,"t":2563,"event":"mousemove"},{"x":940,"y":367,"t":2565,"event":"mousemove"},{"x":927,"y":355,"t":2581,"event":"mousemove"},{"x":916,"y":346,"t":2597,"event":"mousemove"},{"x":907,"y":336,"t":2613,"event":"mousemove"},{"x":899,"y":329,"t":2631,"event":"mousemove"},{"x":891,"y":319,"t":2647,"event":"mousemove"},{"x":883,"y":312,"t":2664,"event":"mousemove"},{"x":878,"y":303,"t":2681,"event":"mousemove"},{"x":875,"y":299,"t":2697,"event":"mousemove"},{"x":870,"y":292,"t":2714,"event":"mousemove"},{"x":870,"y":289,"t":2731,"event":"mousemove"},{"x":870,"y":288,"t":2760,"event":"mousemove"},{"x":870,"y":286,"t":2825,"event":"mousemove"},{"x":870,"y":284,"t":2868,"event":"mousemove"},{"x":870,"y":283,"t":2905,"event":"mousemove"},{"x":870,"y":281,"t":2923,"event":"mousemove"},{"x":870,"y":280,"t":2942,"event":"mousemove"},{"x":870,"y":278,"t":2959,"event":"mousemove"},{"x":870,"y":277,"t":2986,"event":"mousemove"},{"x":870,"y":275,"t":3007,"event":"mousemove"},{"x":870,"y":273,"t":3011,"event":"mousemove"},{"x":872,"y":273,"t":3014,"event":"mousemove"},{"x":872,"y":272,"t":3014,"event":"mousemove"},{"x":875,"y":269,"t":3030,"event":"mousemove"},{"x":878,"y":266,"t":3048,"event":"mousemove"},{"x":883,"y":261,"t":3063,"event":"mousemove"},{"x":883,"y":258,"t":3081,"event":"mousemove"},{"x":885,"y":255,"t":3097,"event":"mousemove"},{"x":886,"y":253,"t":3114,"event":"mousemove"},{"x":886,"y":251,"t":3129,"event":"mousemove"},{"x":886,"y":248,"t":3147,"event":"mousemove"},{"x":886,"y":244,"t":3163,"event":"mousemove"},{"x":886,"y":241,"t":3181,"event":"mousemove"},{"x":886,"y":236,"t":3197,"event":"mousemove"},{"x":886,"y":235,"t":3214,"event":"mousemove"},{"x":886,"y":231,"t":3231,"event":"mousemove"},{"x":886,"y":230,"t":3247,"event":"mousemove"},{"x":886,"y":228,"t":3264,"event":"mousemove"},{"x":886,"y":226,"t":3280,"event":"mousemove"},{"x":886,"y":225,"t":3297,"event":"mousemove"},{"x":886,"y":224,"t":3314,"event":"mousemove"},{"x":886,"y":220,"t":3331,"event":"mousemove"},{"x":886,"y":219,"t":3347,"event":"mousemove"},{"x":886,"y":217,"t":3370,"event":"mousemove"},{"x":886,"y":215,"t":3390,"event":"mousemove"},{"x":886,"y":214,"t":3408,"event":"mousemove"},{"x":885,"y":214,"t":3418,"event":"mousemove"},{"x":883,"y":214,"t":3444,"event":"mousemove"},{"x":881,"y":214,"t":3462,"event":"mousemove"},{"x":880,"y":214,"t":3481,"event":"mousemove"},{"x":878,"y":213,"t":3488,"event":"mousemove"},{"x":876,"y":211,"t":3498,"event":"mousemove"},{"x":875,"y":211,"t":3502,"event":"mousemove"},{"x":874,"y":209,"t":3507,"event":"mousemove"},{"x":872,"y":209,"t":3517,"event":"mousemove"},{"x":870,"y":208,"t":3535,"event":"mousemove"},{"x":869,"y":208,"t":3553,"event":"mousemove"},{"x":867,"y":208,"t":3581,"event":"mousemove"},{"x":865,"y":208,"t":3598,"event":"mousemove"},{"x":864,"y":206,"t":3627,"event":"mousemove"},{"x":863,"y":206,"t":3629,"event":"mousemove"},{"x":856,"y":204,"t":3645,"event":"mousemove"},{"x":853,"y":204,"t":3662,"event":"mousemove"},{"x":852,"y":204,"t":3678,"event":"mousemove"},{"x":850,"y":204,"t":3696,"event":"mousemove"},{"x":847,"y":204,"t":3712,"event":"mousemove"},{"x":843,"y":204,"t":3729,"event":"mousemove"},{"x":839,"y":204,"t":3746,"event":"mousemove"},{"x":834,"y":204,"t":3762,"event":"mousemove"},{"x":831,"y":204,"t":3778,"event":"mousemove"},{"x":825,"y":204,"t":3795,"event":"mousemove"},{"x":821,"y":204,"t":3813,"event":"mousemove"},{"x":819,"y":204,"t":3828,"event":"mousemove"},{"x":817,"y":204,"t":3846,"event":"mousemove"},{"x":814,"y":204,"t":3862,"event":"mousemove"},{"x":812,"y":204,"t":3879,"event":"mousemove"},{"x":810,"y":204,"t":3901,"event":"mousemove"},{"x":809,"y":204,"t":3920,"event":"mousemove"},{"x":808,"y":204,"t":3938,"event":"mousemove"},{"x":805,"y":204,"t":3955,"event":"mousemove"},{"x":803,"y":204,"t":3965,"event":"mousemove"},{"x":801,"y":204,"t":3969,"event":"mousemove"},{"x":800,"y":204,"t":3973,"event":"mousemove"},{"x":798,"y":204,"t":3983,"event":"mousemove"},{"x":797,"y":204,"t":3984,"event":"mousemove"},{"x":795,"y":204,"t":4001,"event":"mousemove"},{"x":794,"y":204,"t":4017,"event":"mousemove"},{"x":792,"y":204,"t":4034,"event":"mousemove"},{"x":790,"y":204,"t":4051,"event":"mousemove"},{"x":787,"y":204,"t":4067,"event":"mousemove"},{"x":779,"y":204,"t":4084,"event":"mousemove"},{"x":776,"y":204,"t":4100,"event":"mousemove"},{"x":775,"y":204,"t":4117,"event":"mousemove"},{"x":772,"y":204,"t":4134,"event":"mousemove"},{"x":770,"y":204,"t":4156,"event":"mousemove"},{"x":768,"y":204,"t":4174,"event":"mousemove"},{"x":767,"y":204,"t":4194,"event":"mousemove"},{"x":764,"y":204,"t":4203,"event":"mousemove"},{"x":759,"y":204,"t":4217,"event":"mousemove"},{"x":752,"y":204,"t":4234,"event":"mousemove"},{"x":743,"y":204,"t":4250,"event":"mousemove"},{"x":737,"y":204,"t":4268,"event":"mousemove"},{"x":731,"y":204,"t":4283,"event":"mousemove"},{"x":728,"y":204,"t":4301,"event":"mousemove"},{"x":721,"y":204,"t":4317,"event":"mousemove"},{"x":715,"y":204,"t":4334,"event":"mousemove"},{"x":712,"y":204,"t":4351,"event":"mousemove"},{"x":709,"y":204,"t":4368,"event":"mousemove"},{"x":708,"y":204,"t":4385,"event":"mousemove"},{"x":704,"y":204,"t":4400,"event":"mousemove"},{"x":703,"y":204,"t":4418,"event":"mousemove"},{"x":701,"y":204,"t":4434,"event":"mousemove"},{"x":699,"y":204,"t":4450,"event":"mousemove"}],"mouse_tracking_targets":{},"correct":true},{"rt":3303,"stimulus":"<p>How different confident are you about your choice ?</p>","slider_start":50,"response":86,"trial_type":"html-slider-response","trial_index":23,"time_elapsed":66984,"internal_node_id":"0.0-4.0-1.6"},{"rt":null,"stimulus":"\n        <div id='jspsych-image' style='position: relative; width: min(80vw, 80vh); height: min(80vw, 80vh);'>\n                \n                <div style='position: absolute; top: 40%; left: 30%; bottom: 40%; right: 30%;'><h1 style='font-size: 60px; color: green;'>Correct!</h1></div>\n                \n                <div class='jspsych-image' id='jspsych-image-0' data-choice='0' style='top: 0;     left: 0;'><img style=\"max-width: 100%; max-height: 100%;\" src='../static/human_exp_images/task_pos/06_3.png' class='correct-choice'></img></div>\n                <div class='jspsych-image' id='jspsych-image-1' data-choice='1' style='top: 0;     right: 0;'><img style=\"max-width: 100%; max-height: 100%;\" src='../static/human_exp_images/task_pos/06_0.png' class=''></img></div>\n                <div class='jspsych-image' id='jspsych-image-2' data-choice='2' style='bottom: 0;  left: 0;'><img style=\"max-width: 100%; max-height: 100%;\" src='../static/human_exp_images/task_pos/06_1.png' class=''></img></div>\n                <div class='jspsych-image' id='jspsych-image-3' data-choice='3' style='bottom: 0;  right: 0;'><img style=\"max-width: 100%; max-height: 100%;\" src='../static/human_exp_images/task_pos/06_2.png' class=''></img></div>\n\n        </div>","response":null,"trial_type":"html-keyboard-response","trial_index":24,"time_elapsed":68486,"internal_node_id":"0.0-4.0-2.6"},{"rt":2675,"response":3,"all_choices":["../static/human_exp_images/task_pos/07_2.png","../static/human_exp_images/task_pos/07_0.png","../static/human_exp_images/task_pos/07_1.png","../static/human_exp_images/task_pos/07_3.png"],"task":"response","correct_response":3,"shuffled_array":[2,0,1,3],"trial_type":"image-click","trial_index":25,"time_elapsed":71166,"internal_node_id":"0.0-4.0-0.7","mouse_tracking_data":[{"x":898,"y":548,"t":628,"event":"mousemove"},{"x":898,"y":545,"t":633,"event":"mousemove"},{"x":898,"y":542,"t":637,"event":"mousemove"},{"x":897,"y":539,"t":642,"event":"mousemove"},{"x":896,"y":537,"t":643,"event":"mousemove"},{"x":893,"y":534,"t":659,"event":"mousemove"},{"x":887,"y":526,"t":677,"event":"mousemove"},{"x":885,"y":517,"t":693,"event":"mousemove"},{"x":882,"y":504,"t":709,"event":"mousemove"},{"x":880,"y":495,"t":725,"event":"mousemove"},{"x":880,"y":484,"t":743,"event":"mousemove"},{"x":880,"y":474,"t":760,"event":"mousemove"},{"x":880,"y":468,"t":776,"event":"mousemove"},{"x":880,"y":464,"t":793,"event":"mousemove"},{"x":880,"y":460,"t":809,"event":"mousemove"},{"x":880,"y":458,"t":827,"event":"mousemove"},{"x":880,"y":457,"t":842,"event":"mousemove"},{"x":880,"y":456,"t":859,"event":"mousemove"},{"x":880,"y":451,"t":877,"event":"mousemove"},{"x":880,"y":446,"t":893,"event":"mousemove"},{"x":880,"y":445,"t":909,"event":"mousemove"},{"x":880,"y":443,"t":926,"event":"mousemove"},{"x":880,"y":442,"t":943,"event":"mousemove"},{"x":880,"y":443,"t":1619,"event":"mousemove"},{"x":880,"y":445,"t":1620,"event":"mousemove"},{"x":880,"y":446,"t":1635,"event":"mousemove"},{"x":880,"y":451,"t":1653,"event":"mousemove"},{"x":880,"y":457,"t":1669,"event":"mousemove"},{"x":882,"y":462,"t":1687,"event":"mousemove"},{"x":885,"y":468,"t":1703,"event":"mousemove"},{"x":889,"y":473,"t":1719,"event":"mousemove"},{"x":893,"y":478,"t":1737,"event":"mousemove"},{"x":897,"y":484,"t":1753,"event":"mousemove"},{"x":902,"y":490,"t":1769,"event":"mousemove"},{"x":907,"y":495,"t":1787,"event":"mousemove"},{"x":913,"y":501,"t":1803,"event":"mousemove"},{"x":919,"y":508,"t":1820,"event":"mousemove"},{"x":922,"y":512,"t":1836,"event":"mousemove"},{"x":926,"y":515,"t":1853,"event":"mousemove"},{"x":929,"y":520,"t":1869,"event":"mousemove"},{"x":935,"y":526,"t":1887,"event":"mousemove"},{"x":940,"y":531,"t":1903,"event":"mousemove"},{"x":944,"y":537,"t":1920,"event":"mousemove"},{"x":949,"y":542,"t":1937,"event":"mousemove"},{"x":963,"y":555,"t":1952,"event":"mousemove"},{"x":976,"y":566,"t":1970,"event":"mousemove"},{"x":984,"y":576,"t":1986,"event":"mousemove"},{"x":988,"y":577,"t":2003,"event":"mousemove"},{"x":995,"y":582,"t":2020,"event":"mousemove"},{"x":1003,"y":583,"t":2036,"event":"mousemove"},{"x":1009,"y":585,"t":2053,"event":"mousemove"},{"x":1012,"y":585,"t":2070,"event":"mousemove"},{"x":1017,"y":587,"t":2086,"event":"mousemove"},{"x":1021,"y":587,"t":2103,"event":"mousemove"},{"x":1023,"y":587,"t":2120,"event":"mousemove"},{"x":1028,"y":587,"t":2137,"event":"mousemove"},{"x":1032,"y":587,"t":2153,"event":"mousemove"},{"x":1045,"y":587,"t":2170,"event":"mousemove"},{"x":1056,"y":587,"t":2186,"event":"mousemove"},{"x":1065,"y":587,"t":2204,"event":"mousemove"},{"x":1070,"y":587,"t":2220,"event":"mousemove"},{"x":1069,"y":587,"t":2375,"event":"mousemove"}],"mouse_tracking_targets":{},"correct":true},{"rt":3425,"stimulus":"<p>How different confident are you about your choice ?</p>","slider_start":50,"response":81,"trial_type":"html-slider-response","trial_index":26,"time_elapsed":74594,"internal_node_id":"0.0-4.0-1.7"},{"rt":null,"stimulus":"\n        <div id='jspsych-image' style='position: relative; width: min(80vw, 80vh); height: min(80vw, 80vh);'>\n                \n                <div style='position: absolute; top: 40%; left: 30%; bottom: 40%; right: 30%;'><h1 style='font-size: 60px; color: green;'>Correct!</h1></div>\n                \n                <div class='jspsych-image' id='jspsych-image-0' data-choice='0' style='top: 0;     left: 0;'><img style=\"max-width: 100%; max-height: 100%;\" src='../static/human_exp_images/task_pos/07_2.png' class=''></img></div>\n                <div class='jspsych-image' id='jspsych-image-1' data-choice='1' style='top: 0;     right: 0;'><img style=\"max-width: 100%; max-height: 100%;\" src='../static/human_exp_images/task_pos/07_0.png' class=''></img></div>\n                <div class='jspsych-image' id='jspsych-image-2' data-choice='2' style='bottom: 0;  left: 0;'><img style=\"max-width: 100%; max-height: 100%;\" src='../static/human_exp_images/task_pos/07_1.png' class=''></img></div>\n                <div class='jspsych-image' id='jspsych-image-3' data-choice='3' style='bottom: 0;  right: 0;'><img style=\"max-width: 100%; max-height: 100%;\" src='../static/human_exp_images/task_pos/07_3.png' class='correct-choice'></img></div>\n\n        </div>","response":null,"trial_type":"html-keyboard-response","trial_index":27,"time_elapsed":76100,"internal_node_id":"0.0-4.0-2.7"},{"rt":5273,"response":0,"all_choices":["../static/human_exp_images/task_pos/08_3.png","../static/human_exp_images/task_pos/08_2.png","../static/human_exp_images/task_pos/08_0.png","../static/human_exp_images/task_pos/08_1.png"],"task":"response","correct_response":0,"shuffled_array":[3,2,0,1],"trial_type":"image-click","trial_index":28,"time_elapsed":81378,"internal_node_id":"0.0-4.0-0.8","mouse_tracking_data":[{"x":896,"y":545,"t":21,"event":"mousemove"},{"x":897,"y":545,"t":295,"event":"mousemove"},{"x":898,"y":545,"t":568,"event":"mousemove"},{"x":900,"y":545,"t":624,"event":"mousemove"},{"x":902,"y":545,"t":661,"event":"mousemove"},{"x":903,"y":544,"t":673,"event":"mousemove"},{"x":905,"y":542,"t":677,"event":"mousemove"},{"x":908,"y":539,"t":687,"event":"mousemove"},{"x":909,"y":537,"t":696,"event":"mousemove"},{"x":911,"y":535,"t":705,"event":"mousemove"},{"x":913,"y":534,"t":707,"event":"mousemove"},{"x":913,"y":533,"t":719,"event":"mousemove"},{"x":914,"y":533,"t":722,"event":"mousemove"},{"x":916,"y":531,"t":741,"event":"mousemove"},{"x":916,"y":529,"t":768,"event":"mousemove"},{"x":916,"y":528,"t":805,"event":"mousemove"},{"x":916,"y":526,"t":1129,"event":"mousemove"},{"x":916,"y":525,"t":1157,"event":"mousemove"},{"x":916,"y":523,"t":1175,"event":"mousemove"},{"x":916,"y":522,"t":1176,"event":"mousemove"},{"x":920,"y":514,"t":1192,"event":"mousemove"},{"x":923,"y":503,"t":1209,"event":"mousemove"},{"x":925,"y":498,"t":1225,"event":"mousemove"},{"x":927,"y":493,"t":1242,"event":"mousemove"},{"x":927,"y":490,"t":1259,"event":"mousemove"},{"x":927,"y":488,"t":1276,"event":"mousemove"},{"x":927,"y":484,"t":1293,"event":"mousemove"},{"x":929,"y":478,"t":1309,"event":"mousemove"},{"x":931,"y":468,"t":1325,"event":"mousemove"},{"x":933,"y":459,"t":1343,"event":"mousemove"},{"x":933,"y":451,"t":1359,"event":"mousemove"},{"x":933,"y":446,"t":1376,"event":"mousemove"},{"x":933,"y":442,"t":1392,"event":"mousemove"},{"x":933,"y":431,"t":1409,"event":"mousemove"},{"x":936,"y":413,"t":1425,"event":"mousemove"},{"x":936,"y":395,"t":1443,"event":"mousemove"},{"x":938,"y":378,"t":1458,"event":"mousemove"},{"x":938,"y":367,"t":1475,"event":"mousemove"},{"x":938,"y":354,"t":1493,"event":"mousemove"},{"x":938,"y":347,"t":1509,"event":"mousemove"},{"x":938,"y":338,"t":1526,"event":"mousemove"},{"x":938,"y":330,"t":1542,"event":"mousemove"},{"x":938,"y":320,"t":1559,"event":"mousemove"},{"x":938,"y":312,"t":1576,"event":"mousemove"},{"x":938,"y":307,"t":1593,"event":"mousemove"},{"x":938,"y":303,"t":1608,"event":"mousemove"},{"x":938,"y":299,"t":1626,"event":"mousemove"},{"x":938,"y":298,"t":1642,"event":"mousemove"},{"x":938,"y":296,"t":1659,"event":"mousemove"},{"x":938,"y":294,"t":1676,"event":"mousemove"},{"x":936,"y":294,"t":1932,"event":"mousemove"},{"x":934,"y":294,"t":1948,"event":"mousemove"},{"x":933,"y":294,"t":1976,"event":"mousemove"},{"x":931,"y":294,"t":2004,"event":"mousemove"},{"x":930,"y":294,"t":3707,"event":"mousemove"},{"x":930,"y":296,"t":3986,"event":"mousemove"},{"x":930,"y":298,"t":3997,"event":"mousemove"},{"x":930,"y":299,"t":4008,"event":"mousemove"},{"x":929,"y":299,"t":4074,"event":"mousemove"},{"x":927,"y":299,"t":4077,"event":"mousemove"},{"x":925,"y":299,"t":4078,"event":"mousemove"},{"x":920,"y":299,"t":4095,"event":"mousemove"},{"x":918,"y":299,"t":4112,"event":"mousemove"},{"x":916,"y":299,"t":4131,"event":"mousemove"},{"x":914,"y":299,"t":4178,"event":"mousemove"},{"x":913,"y":299,"t":4195,"event":"mousemove"},{"x":911,"y":299,"t":4205,"event":"mousemove"},{"x":909,"y":299,"t":4207,"event":"mousemove"},{"x":908,"y":298,"t":4224,"event":"mousemove"},{"x":907,"y":298,"t":4241,"event":"mousemove"},{"x":904,"y":298,"t":4257,"event":"mousemove"},{"x":898,"y":296,"t":4274,"event":"mousemove"},{"x":893,"y":294,"t":4290,"event":"mousemove"},{"x":882,"y":290,"t":4307,"event":"mousemove"},{"x":871,"y":285,"t":4323,"event":"mousemove"},{"x":863,"y":282,"t":4340,"event":"mousemove"},{"x":849,"y":272,"t":4357,"event":"mousemove"},{"x":842,"y":268,"t":4373,"event":"mousemove"},{"x":831,"y":259,"t":4390,"event":"mousemove"},{"x":818,"y":244,"t":4406,"event":"mousemove"},{"x":809,"y":232,"t":4423,"event":"mousemove"},{"x":797,"y":216,"t":4440,"event":"mousemove"},{"x":792,"y":212,"t":4457,"event":"mousemove"},{"x":784,"y":203,"t":4473,"event":"mousemove"},{"x":781,"y":196,"t":4489,"event":"mousemove"},{"x":778,"y":193,"t":4508,"event":"mousemove"},{"x":778,"y":192,"t":4524,"event":"mousemove"},{"x":776,"y":190,"t":4540,"event":"mousemove"},{"x":775,"y":190,"t":4597,"event":"mousemove"},{"x":773,"y":190,"t":4642,"event":"mousemove"},{"x":772,"y":190,"t":4658,"event":"mousemove"},{"x":770,"y":190,"t":4673,"event":"mousemove"},{"x":764,"y":188,"t":4691,"event":"mousemove"},{"x":752,"y":187,"t":4707,"event":"mousemove"},{"x":741,"y":185,"t":4724,"event":"mousemove"},{"x":730,"y":185,"t":4739,"event":"mousemove"},{"x":723,"y":185,"t":4757,"event":"mousemove"},{"x":715,"y":185,"t":4773,"event":"mousemove"},{"x":710,"y":185,"t":4791,"event":"mousemove"},{"x":704,"y":185,"t":4808,"event":"mousemove"},{"x":703,"y":185,"t":4954,"event":"mousemove"},{"x":701,"y":185,"t":4960,"event":"mousemove"}],"mouse_tracking_targets":{},"correct":true},{"rt":2545,"stimulus":"<p>How different confident are you about your choice ?</p>","slider_start":50,"response":78,"trial_type":"html-slider-response","trial_index":29,"time_elapsed":83925,"internal_node_id":"0.0-4.0-1.8"},{"rt":null,"stimulus":"\n        <div id='jspsych-image' style='position: relative; width: min(80vw, 80vh); height: min(80vw, 80vh);'>\n                \n                <div style='position: absolute; top: 40%; left: 30%; bottom: 40%; right: 30%;'><h1 style='font-size: 60px; color: green;'>Correct!</h1></div>\n                \n                <div class='jspsych-image' id='jspsych-image-0' data-choice='0' style='top: 0;     left: 0;'><img style=\"max-width: 100%; max-height: 100%;\" src='../static/human_exp_images/task_pos/08_3.png' class='correct-choice'></img></div>\n                <div class='jspsych-image' id='jspsych-image-1' data-choice='1' style='top: 0;     right: 0;'><img style=\"max-width: 100%; max-height: 100%;\" src='../static/human_exp_images/task_pos/08_2.png' class=''></img></div>\n                <div class='jspsych-image' id='jspsych-image-2' data-choice='2' style='bottom: 0;  left: 0;'><img style=\"max-width: 100%; max-height: 100%;\" src='../static/human_exp_images/task_pos/08_0.png' class=''></img></div>\n                <div class='jspsych-image' id='jspsych-image-3' data-choice='3' style='bottom: 0;  right: 0;'><img style=\"max-width: 100%; max-height: 100%;\" src='../static/human_exp_images/task_pos/08_1.png' class=''></img></div>\n\n        </div>","response":null,"trial_type":"html-keyboard-response","trial_index":30,"time_elapsed":85429,"internal_node_id":"0.0-4.0-2.8"},{"rt":2527,"response":0,"all_choices":["../static/human_exp_images/task_pos/09_3.png","../static/human_exp_images/task_pos/09_0.png","../static/human_exp_images/task_pos/09_2.png","../static/human_exp_images/task_pos/09_1.png"],"task":"response","correct_response":0,"shuffled_array":[3,0,2,1],"trial_type":"image-click","trial_index":31,"time_elapsed":87960,"internal_node_id":"0.0-4.0-0.9","mouse_tracking_data":[{"x":1003,"y":388,"t":496,"event":"mousemove"},{"x":1003,"y":381,"t":500,"event":"mousemove"},{"x":1003,"y":378,"t":505,"event":"mousemove"},{"x":1003,"y":370,"t":509,"event":"mousemove"},{"x":1003,"y":367,"t":510,"event":"mousemove"},{"x":1003,"y":353,"t":526,"event":"mousemove"},{"x":1003,"y":325,"t":543,"event":"mousemove"},{"x":1003,"y":305,"t":559,"event":"mousemove"},{"x":1007,"y":299,"t":577,"event":"mousemove"},{"x":1007,"y":296,"t":593,"event":"mousemove"},{"x":1007,"y":294,"t":656,"event":"mousemove"},{"x":1007,"y":292,"t":674,"event":"mousemove"},{"x":1007,"y":292,"t":692,"event":"mousemove"},{"x":1007,"y":290,"t":701,"event":"mousemove"},{"x":1007,"y":288,"t":710,"event":"mousemove"},{"x":996,"y":283,"t":726,"event":"mousemove"},{"x":966,"y":276,"t":743,"event":"mousemove"},{"x":930,"y":270,"t":759,"event":"mousemove"},{"x":905,"y":265,"t":776,"event":"mousemove"},{"x":875,"y":260,"t":793,"event":"mousemove"},{"x":857,"y":260,"t":810,"event":"mousemove"},{"x":840,"y":260,"t":827,"event":"mousemove"},{"x":826,"y":260,"t":843,"event":"mousemove"},{"x":815,"y":260,"t":860,"event":"mousemove"},{"x":806,"y":259,"t":876,"event":"mousemove"},{"x":798,"y":258,"t":894,"event":"mousemove"},{"x":790,"y":256,"t":909,"event":"mousemove"},{"x":782,"y":256,"t":927,"event":"mousemove"},{"x":777,"y":254,"t":944,"event":"mousemove"},{"x":774,"y":253,"t":960,"event":"mousemove"},{"x":771,"y":251,"t":977,"event":"mousemove"},{"x":771,"y":249,"t":993,"event":"mousemove"},{"x":769,"y":249,"t":1010,"event":"mousemove"},{"x":769,"y":248,"t":1026,"event":"mousemove"},{"x":768,"y":245,"t":1043,"event":"mousemove"},{"x":766,"y":242,"t":1060,"event":"mousemove"},{"x":766,"y":240,"t":1077,"event":"mousemove"},{"x":766,"y":238,"t":1093,"event":"mousemove"},{"x":766,"y":237,"t":1110,"event":"mousemove"},{"x":766,"y":236,"t":1127,"event":"mousemove"},{"x":766,"y":234,"t":1143,"event":"mousemove"},{"x":766,"y":232,"t":1167,"event":"mousemove"},{"x":768,"y":232,"t":1377,"event":"mousemove"},{"x":771,"y":232,"t":1378,"event":"mousemove"},{"x":776,"y":232,"t":1394,"event":"mousemove"},{"x":790,"y":232,"t":1412,"event":"mousemove"},{"x":802,"y":232,"t":1428,"event":"mousemove"},{"x":815,"y":232,"t":1445,"event":"mousemove"},{"x":822,"y":232,"t":1460,"event":"mousemove"},{"x":833,"y":237,"t":1478,"event":"mousemove"},{"x":838,"y":240,"t":1494,"event":"mousemove"},{"x":848,"y":242,"t":1511,"event":"mousemove"},{"x":855,"y":245,"t":1528,"event":"mousemove"},{"x":862,"y":248,"t":1545,"event":"mousemove"},{"x":866,"y":249,"t":1562,"event":"mousemove"},{"x":871,"y":251,"t":1577,"event":"mousemove"},{"x":873,"y":253,"t":1595,"event":"mousemove"},{"x":877,"y":253,"t":1611,"event":"mousemove"},{"x":881,"y":254,"t":1628,"event":"mousemove"},{"x":884,"y":256,"t":1645,"event":"mousemove"},{"x":886,"y":258,"t":1662,"event":"mousemove"},{"x":888,"y":259,"t":1677,"event":"mousemove"},{"x":890,"y":259,"t":1694,"event":"mousemove"},{"x":882,"y":259,"t":1788,"event":"mousemove"},{"x":875,"y":259,"t":1789,"event":"mousemove"},{"x":854,"y":254,"t":1805,"event":"mousemove"},{"x":814,"y":229,"t":1822,"event":"mousemove"},{"x":786,"y":204,"t":1839,"event":"mousemove"},{"x":763,"y":187,"t":1856,"event":"mousemove"},{"x":746,"y":175,"t":1872,"event":"mousemove"},{"x":733,"y":165,"t":1890,"event":"mousemove"},{"x":723,"y":157,"t":1905,"event":"mousemove"},{"x":718,"y":154,"t":1922,"event":"mousemove"},{"x":715,"y":152,"t":1939,"event":"mousemove"},{"x":715,"y":151,"t":1955,"event":"mousemove"},{"x":713,"y":149,"t":1971,"event":"mousemove"},{"x":712,"y":149,"t":1989,"event":"mousemove"},{"x":706,"y":146,"t":2006,"event":"mousemove"},{"x":697,"y":143,"t":2022,"event":"mousemove"},{"x":687,"y":140,"t":2039,"event":"mousemove"},{"x":679,"y":138,"t":2055,"event":"mousemove"},{"x":669,"y":138,"t":2072,"event":"mousemove"},{"x":668,"y":138,"t":2089,"event":"mousemove"},{"x":668,"y":140,"t":2228,"event":"mousemove"},{"x":668,"y":141,"t":2237,"event":"mousemove"}],"mouse_tracking_targets":{},"correct":true},{"rt":3685,"stimulus":"<p>How different confident are you about your choice ?</p>","slider_start":50,"response":82,"trial_type":"html-slider-response","trial_index":32,"time_elapsed":91647,"internal_node_id":"0.0-4.0-1.9"},{"rt":null,"stimulus":"\n        <div id='jspsych-image' style='position: relative; width: min(80vw, 80vh); height: min(80vw, 80vh);'>\n                \n                <div style='position: absolute; top: 40%; left: 30%; bottom: 40%; right: 30%;'><h1 style='font-size: 60px; color: green;'>Correct!</h1></div>\n                \n                <div class='jspsych-image' id='jspsych-image-0' data-choice='0' style='top: 0;     left: 0;'><img style=\"max-width: 100%; max-height: 100%;\" src='../static/human_exp_images/task_pos/09_3.png' class='correct-choice'></img></div>\n                <div class='jspsych-image' id='jspsych-image-1' data-choice='1' style='top: 0;     right: 0;'><img style=\"max-width: 100%; max-height: 100%;\" src='../static/human_exp_images/task_pos/09_0.png' class=''></img></div>\n                <div class='jspsych-image' id='jspsych-image-2' data-choice='2' style='bottom: 0;  left: 0;'><img style=\"max-width: 100%; max-height: 100%;\" src='../static/human_exp_images/task_pos/09_2.png' class=''></img></div>\n                <div class='jspsych-image' id='jspsych-image-3' data-choice='3' style='bottom: 0;  right: 0;'><img style=\"max-width: 100%; max-height: 100%;\" src='../static/human_exp_images/task_pos/09_1.png' class=''></img></div>\n\n        </div>","response":null,"trial_type":"html-keyboard-response","trial_index":33,"time_elapsed":93150,"internal_node_id":"0.0-4.0-2.9"},{"rt":1928,"response":3,"all_choices":["../static/human_exp_images/task_pos/10_1.png","../static/human_exp_images/task_pos/10_2.png","../static/human_exp_images/task_pos/10_0.png","../static/human_exp_images/task_pos/10_3.png"],"task":"response","correct_response":3,"shuffled_array":[1,2,0,3],"trial_type":"image-click","trial_index":34,"time_elapsed":95081,"internal_node_id":"0.0-4.0-0.10","mouse_tracking_data":[{"x":910,"y":549,"t":227,"event":"mousemove"},{"x":910,"y":548,"t":534,"event":"mousemove"},{"x":910,"y":546,"t":552,"event":"mousemove"},{"x":910,"y":545,"t":572,"event":"mousemove"},{"x":912,"y":543,"t":580,"event":"mousemove"},{"x":912,"y":542,"t":581,"event":"mousemove"},{"x":912,"y":538,"t":597,"event":"mousemove"},{"x":914,"y":529,"t":615,"event":"mousemove"},{"x":914,"y":526,"t":630,"event":"mousemove"},{"x":914,"y":523,"t":648,"event":"mousemove"},{"x":914,"y":520,"t":664,"event":"mousemove"},{"x":914,"y":518,"t":682,"event":"mousemove"},{"x":914,"y":516,"t":709,"event":"mousemove"},{"x":914,"y":515,"t":746,"event":"mousemove"},{"x":915,"y":515,"t":1210,"event":"mousemove"},{"x":917,"y":515,"t":1211,"event":"mousemove"},{"x":923,"y":515,"t":1228,"event":"mousemove"},{"x":932,"y":515,"t":1245,"event":"mousemove"},{"x":937,"y":515,"t":1260,"event":"mousemove"},{"x":945,"y":518,"t":1278,"event":"mousemove"},{"x":952,"y":522,"t":1294,"event":"mousemove"},{"x":961,"y":526,"t":1311,"event":"mousemove"},{"x":985,"y":534,"t":1328,"event":"mousemove"},{"x":1003,"y":540,"t":1345,"event":"mousemove"},{"x":1063,"y":561,"t":1362,"event":"mousemove"},{"x":1088,"y":568,"t":1377,"event":"mousemove"},{"x":1097,"y":572,"t":1394,"event":"mousemove"},{"x":1099,"y":572,"t":1412,"event":"mousemove"},{"x":1100,"y":574,"t":1428,"event":"mousemove"},{"x":1099,"y":574,"t":1637,"event":"mousemove"}],"mouse_tracking_targets":{},"correct":true},{"rt":2420,"stimulus":"<p>How different confident are you about your choice ?</p>","slider_start":50,"response":78,"trial_type":"html-slider-response","trial_index":35,"time_elapsed":97503,"internal_node_id":"0.0-4.0-1.10"},{"rt":null,"stimulus":"\n        <div id='jspsych-image' style='position: relative; width: min(80vw, 80vh); height: min(80vw, 80vh);'>\n                \n                <div style='position: absolute; top: 40%; left: 30%; bottom: 40%; right: 30%;'><h1 style='font-size: 60px; color: green;'>Correct!</h1></div>\n                \n                <div class='jspsych-image' id='jspsych-image-0' data-choice='0' style='top: 0;     left: 0;'><img style=\"max-width: 100%; max-height: 100%;\" src='../static/human_exp_images/task_pos/10_1.png' class=''></img></div>\n                <div class='jspsych-image' id='jspsych-image-1' data-choice='1' style='top: 0;     right: 0;'><img style=\"max-width: 100%; max-height: 100%;\" src='../static/human_exp_images/task_pos/10_2.png' class=''></img></div>\n                <div class='jspsych-image' id='jspsych-image-2' data-choice='2' style='bottom: 0;  left: 0;'><img style=\"max-width: 100%; max-height: 100%;\" src='../static/human_exp_images/task_pos/10_0.png' class=''></img></div>\n                <div class='jspsych-image' id='jspsych-image-3' data-choice='3' style='bottom: 0;  right: 0;'><img style=\"max-width: 100%; max-height: 100%;\" src='../static/human_exp_images/task_pos/10_3.png' class='correct-choice'></img></div>\n\n        </div>","response":null,"trial_type":"html-keyboard-response","trial_index":36,"time_elapsed":99007,"internal_node_id":"0.0-4.0-2.10"},{"rt":3739,"response":3,"all_choices":["../static/human_exp_images/task_pos/11_0.png","../static/human_exp_images/task_pos/11_1.png","../static/human_exp_images/task_pos/11_2.png","../static/human_exp_images/task_pos/11_3.png"],"task":"response","correct_response":3,"shuffled_array":[0,1,2,3],"trial_type":"image-click","trial_index":37,"time_elapsed":102750,"internal_node_id":"0.0-4.0-0.11","mouse_tracking_data":[{"x":886,"y":540,"t":2693,"event":"mousemove"},{"x":886,"y":539,"t":2695,"event":"mousemove"},{"x":886,"y":537,"t":2810,"event":"mousemove"},{"x":887,"y":537,"t":2874,"event":"mousemove"},{"x":888,"y":537,"t":2881,"event":"mousemove"},{"x":890,"y":537,"t":2890,"event":"mousemove"},{"x":892,"y":537,"t":2903,"event":"mousemove"},{"x":894,"y":537,"t":2913,"event":"mousemove"},{"x":895,"y":537,"t":2917,"event":"mousemove"},{"x":897,"y":537,"t":2927,"event":"mousemove"},{"x":898,"y":537,"t":2937,"event":"mousemove"},{"x":899,"y":537,"t":2939,"event":"mousemove"},{"x":906,"y":537,"t":2955,"event":"mousemove"},{"x":910,"y":537,"t":2972,"event":"mousemove"},{"x":919,"y":537,"t":2989,"event":"mousemove"},{"x":926,"y":537,"t":3005,"event":"mousemove"},{"x":934,"y":537,"t":3021,"event":"mousemove"},{"x":941,"y":537,"t":3038,"event":"mousemove"},{"x":947,"y":537,"t":3055,"event":"mousemove"},{"x":952,"y":537,"t":3072,"event":"mousemove"},{"x":958,"y":537,"t":3089,"event":"mousemove"},{"x":967,"y":537,"t":3105,"event":"mousemove"},{"x":979,"y":537,"t":3122,"event":"mousemove"},{"x":989,"y":540,"t":3138,"event":"mousemove"},{"x":1001,"y":544,"t":3155,"event":"mousemove"},{"x":1007,"y":545,"t":3172,"event":"mousemove"},{"x":1017,"y":546,"t":3189,"event":"mousemove"},{"x":1027,"y":549,"t":3205,"event":"mousemove"},{"x":1034,"y":553,"t":3223,"event":"mousemove"},{"x":1040,"y":553,"t":3238,"event":"mousemove"},{"x":1047,"y":555,"t":3256,"event":"mousemove"},{"x":1054,"y":557,"t":3273,"event":"mousemove"},{"x":1054,"y":559,"t":3411,"event":"mousemove"},{"x":1054,"y":560,"t":3416,"event":"mousemove"},{"x":1054,"y":562,"t":3421,"event":"mousemove"},{"x":1054,"y":564,"t":3429,"event":"mousemove"},{"x":1053,"y":566,"t":3438,"event":"mousemove"},{"x":1051,"y":566,"t":3446,"event":"mousemove"}],"mouse_tracking_targets":{},"correct":true},{"rt":2701,"stimulus":"<p>How different confident are you about your choice ?</p>","slider_start":50,"response":73,"trial_type":"html-slider-response","trial_index":38,"time_elapsed":105453,"internal_node_id":"0.0-4.0-1.11"},{"rt":null,"stimulus":"\n        <div id='jspsych-image' style='position: relative; width: min(80vw, 80vh); height: min(80vw, 80vh);'>\n                \n                <div style='position: absolute; top: 40%; left: 30%; bottom: 40%; right: 30%;'><h1 style='font-size: 60px; color: green;'>Correct!</h1></div>\n                \n                <div class='jspsych-image' id='jspsych-image-0' data-choice='0' style='top: 0;     left: 0;'><img style=\"max-width: 100%; max-height: 100%;\" src='../static/human_exp_images/task_pos/11_0.png' class=''></img></div>\n                <div class='jspsych-image' id='jspsych-image-1' data-choice='1' style='top: 0;     right: 0;'><img style=\"max-width: 100%; max-height: 100%;\" src='../static/human_exp_images/task_pos/11_1.png' class=''></img></div>\n                <div class='jspsych-image' id='jspsych-image-2' data-choice='2' style='bottom: 0;  left: 0;'><img style=\"max-width: 100%; max-height: 100%;\" src='../static/human_exp_images/task_pos/11_2.png' class=''></img></div>\n                <div class='jspsych-image' id='jspsych-image-3' data-choice='3' style='bottom: 0;  right: 0;'><img style=\"max-width: 100%; max-height: 100%;\" src='../static/human_exp_images/task_pos/11_3.png' class='correct-choice'></img></div>\n\n        </div>","response":null,"trial_type":"html-keyboard-response","trial_index":39,"time_elapsed":106956,"internal_node_id":"0.0-4.0-2.11"},{"rt":2171,"response":3,"all_choices":["../static/human_exp_images/task_pos/12_0.png","../static/human_exp_images/task_pos/12_1.png","../static/human_exp_images/task_pos/12_2.png","../static/human_exp_images/task_pos/12_3.png"],"task":"response","correct_response":3,"shuffled_array":[0,1,2,3],"trial_type":"image-click","trial_index":40,"time_elapsed":109131,"internal_node_id":"0.0-4.0-0.12","mouse_tracking_data":[{"x":882,"y":560,"t":594,"event":"mousemove"},{"x":882,"y":561,"t":600,"event":"mousemove"},{"x":882,"y":563,"t":603,"event":"mousemove"},{"x":882,"y":565,"t":609,"event":"mousemove"},{"x":882,"y":567,"t":623,"event":"mousemove"},{"x":883,"y":567,"t":647,"event":"mousemove"},{"x":885,"y":567,"t":684,"event":"mousemove"},{"x":886,"y":567,"t":702,"event":"mousemove"},{"x":888,"y":567,"t":729,"event":"mousemove"},{"x":889,"y":567,"t":791,"event":"mousemove"},{"x":891,"y":567,"t":820,"event":"mousemove"},{"x":893,"y":567,"t":837,"event":"mousemove"},{"x":894,"y":567,"t":856,"event":"mousemove"},{"x":896,"y":567,"t":863,"event":"mousemove"},{"x":897,"y":567,"t":873,"event":"mousemove"},{"x":899,"y":567,"t":877,"event":"mousemove"},{"x":900,"y":567,"t":892,"event":"mousemove"},{"x":902,"y":567,"t":911,"event":"mousemove"},{"x":904,"y":567,"t":1102,"event":"mousemove"},{"x":905,"y":567,"t":1111,"event":"mousemove"},{"x":908,"y":567,"t":1119,"event":"mousemove"},{"x":908,"y":565,"t":1121,"event":"mousemove"},{"x":911,"y":563,"t":1128,"event":"mousemove"},{"x":911,"y":561,"t":1132,"event":"mousemove"},{"x":915,"y":560,"t":1138,"event":"mousemove"},{"x":916,"y":560,"t":1142,"event":"mousemove"},{"x":916,"y":558,"t":1147,"event":"mousemove"},{"x":918,"y":556,"t":1148,"event":"mousemove"},{"x":919,"y":556,"t":1164,"event":"mousemove"},{"x":920,"y":554,"t":1182,"event":"mousemove"},{"x":922,"y":552,"t":1197,"event":"mousemove"},{"x":924,"y":552,"t":1312,"event":"mousemove"},{"x":927,"y":552,"t":1375,"event":"mousemove"},{"x":930,"y":552,"t":1383,"event":"mousemove"},{"x":931,"y":552,"t":1384,"event":"mousemove"},{"x":935,"y":552,"t":1393,"event":"mousemove"},{"x":936,"y":552,"t":1395,"event":"mousemove"},{"x":940,"y":552,"t":1401,"event":"mousemove"},{"x":941,"y":552,"t":1404,"event":"mousemove"},{"x":944,"y":552,"t":1410,"event":"mousemove"},{"x":946,"y":552,"t":1416,"event":"mousemove"},{"x":947,"y":552,"t":1419,"event":"mousemove"},{"x":949,"y":552,"t":1421,"event":"mousemove"},{"x":953,"y":552,"t":1428,"event":"mousemove"},{"x":955,"y":552,"t":1430,"event":"mousemove"},{"x":960,"y":552,"t":1437,"event":"mousemove"},{"x":963,"y":552,"t":1440,"event":"mousemove"},{"x":969,"y":552,"t":1446,"event":"mousemove"},{"x":973,"y":552,"t":1450,"event":"mousemove"},{"x":979,"y":552,"t":1455,"event":"mousemove"},{"x":982,"y":552,"t":1461,"event":"mousemove"},{"x":988,"y":552,"t":1465,"event":"mousemove"},{"x":1001,"y":552,"t":1479,"event":"mousemove"},{"x":1012,"y":552,"t":1495,"event":"mousemove"},{"x":1021,"y":552,"t":1511,"event":"mousemove"},{"x":1025,"y":552,"t":1529,"event":"mousemove"},{"x":1034,"y":552,"t":1544,"event":"mousemove"},{"x":1045,"y":552,"t":1561,"event":"mousemove"},{"x":1056,"y":552,"t":1579,"event":"mousemove"},{"x":1065,"y":554,"t":1595,"event":"mousemove"},{"x":1067,"y":554,"t":1612,"event":"mousemove"},{"x":1072,"y":556,"t":1629,"event":"mousemove"},{"x":1073,"y":556,"t":1645,"event":"mousemove"}],"mouse_tracking_targets":{},"correct":true},{"rt":2581,"stimulus":"<p>How different confident are you about your choice ?</p>","slider_start":50,"response":82,"trial_type":"html-slider-response","trial_index":41,"time_elapsed":111714,"internal_node_id":"0.0-4.0-1.12"},{"rt":null,"stimulus":"\n        <div id='jspsych-image' style='position: relative; width: min(80vw, 80vh); height: min(80vw, 80vh);'>\n                \n                <div style='position: absolute; top: 40%; left: 30%; bottom: 40%; right: 30%;'><h1 style='font-size: 60px; color: green;'>Correct!</h1></div>\n                \n                <div class='jspsych-image' id='jspsych-image-0' data-choice='0' style='top: 0;     left: 0;'><img style=\"max-width: 100%; max-height: 100%;\" src='../static/human_exp_images/task_pos/12_0.png' class=''></img></div>\n                <div class='jspsych-image' id='jspsych-image-1' data-choice='1' style='top: 0;     right: 0;'><img style=\"max-width: 100%; max-height: 100%;\" src='../static/human_exp_images/task_pos/12_1.png' class=''></img></div>\n                <div class='jspsych-image' id='jspsych-image-2' data-choice='2' style='bottom: 0;  left: 0;'><img style=\"max-width: 100%; max-height: 100%;\" src='../static/human_exp_images/task_pos/12_2.png' class=''></img></div>\n                <div class='jspsych-image' id='jspsych-image-3' data-choice='3' style='bottom: 0;  right: 0;'><img style=\"max-width: 100%; max-height: 100%;\" src='../static/human_exp_images/task_pos/12_3.png' class='correct-choice'></img></div>\n\n        </div>","response":null,"trial_type":"html-keyboard-response","trial_index":42,"time_elapsed":113218,"internal_node_id":"0.0-4.0-2.12"},{"rt":4622,"response":1,"all_choices":["../static/human_exp_images/task_pos/13_1.png","../static/human_exp_images/task_pos/13_3.png","../static/human_exp_images/task_pos/13_0.png","../static/human_exp_images/task_pos/13_2.png"],"task":"response","correct_response":1,"shuffled_array":[1,3,0,2],"trial_type":"image-click","trial_index":43,"time_elapsed":117841,"internal_node_id":"0.0-4.0-0.13","mouse_tracking_data":[{"x":925,"y":506,"t":115,"event":"mousemove"},{"x":927,"y":506,"t":159,"event":"mousemove"},{"x":929,"y":506,"t":177,"event":"mousemove"},{"x":930,"y":506,"t":185,"event":"mousemove"},{"x":931,"y":506,"t":199,"event":"mousemove"},{"x":933,"y":506,"t":216,"event":"mousemove"},{"x":935,"y":506,"t":232,"event":"mousemove"},{"x":936,"y":506,"t":250,"event":"mousemove"},{"x":938,"y":506,"t":267,"event":"mousemove"},{"x":940,"y":506,"t":466,"event":"mousemove"},{"x":941,"y":506,"t":820,"event":"mousemove"},{"x":942,"y":506,"t":837,"event":"mousemove"},{"x":944,"y":506,"t":864,"event":"mousemove"},{"x":945,"y":506,"t":884,"event":"mousemove"},{"x":947,"y":506,"t":3773,"event":"mousemove"},{"x":949,"y":506,"t":3812,"event":"mousemove"},{"x":950,"y":506,"t":3815,"event":"mousemove"},{"x":952,"y":502,"t":3820,"event":"mousemove"},{"x":953,"y":500,"t":3822,"event":"mousemove"},{"x":959,"y":490,"t":3837,"event":"mousemove"},{"x":973,"y":458,"t":3855,"event":"mousemove"},{"x":992,"y":418,"t":3871,"event":"mousemove"},{"x":1007,"y":389,"t":3888,"event":"mousemove"},{"x":1013,"y":369,"t":3904,"event":"mousemove"},{"x":1020,"y":342,"t":3922,"event":"mousemove"},{"x":1026,"y":326,"t":3937,"event":"mousemove"},{"x":1029,"y":309,"t":3954,"event":"mousemove"},{"x":1033,"y":301,"t":3971,"event":"mousemove"},{"x":1039,"y":277,"t":3988,"event":"mousemove"},{"x":1040,"y":268,"t":4005,"event":"mousemove"},{"x":1043,"y":259,"t":4021,"event":"mousemove"},{"x":1046,"y":250,"t":4038,"event":"mousemove"},{"x":1051,"y":237,"t":4055,"event":"mousemove"},{"x":1054,"y":225,"t":4072,"event":"mousemove"},{"x":1059,"y":214,"t":4087,"event":"mousemove"},{"x":1062,"y":206,"t":4104,"event":"mousemove"},{"x":1065,"y":200,"t":4121,"event":"mousemove"},{"x":1068,"y":195,"t":4138,"event":"mousemove"},{"x":1076,"y":186,"t":4154,"event":"mousemove"}],"mouse_tracking_targets":{},"correct":true},{"rt":4176,"stimulus":"<p>How different confident are you about your choice ?</p>","slider_start":50,"response":85,"trial_type":"html-slider-response","trial_index":44,"time_elapsed":122018,"internal_node_id":"0.0-4.0-1.13"},{"rt":null,"stimulus":"\n        <div id='jspsych-image' style='position: relative; width: min(80vw, 80vh); height: min(80vw, 80vh);'>\n                \n                <div style='position: absolute; top: 40%; left: 30%; bottom: 40%; right: 30%;'><h1 style='font-size: 60px; color: green;'>Correct!</h1></div>\n                \n                <div class='jspsych-image' id='jspsych-image-0' data-choice='0' style='top: 0;     left: 0;'><img style=\"max-width: 100%; max-height: 100%;\" src='../static/human_exp_images/task_pos/13_1.png' class=''></img></div>\n                <div class='jspsych-image' id='jspsych-image-1' data-choice='1' style='top: 0;     right: 0;'><img style=\"max-width: 100%; max-height: 100%;\" src='../static/human_exp_images/task_pos/13_3.png' class='correct-choice'></img></div>\n                <div class='jspsych-image' id='jspsych-image-2' data-choice='2' style='bottom: 0;  left: 0;'><img style=\"max-width: 100%; max-height: 100%;\" src='../static/human_exp_images/task_pos/13_0.png' class=''></img></div>\n                <div class='jspsych-image' id='jspsych-image-3' data-choice='3' style='bottom: 0;  right: 0;'><img style=\"max-width: 100%; max-height: 100%;\" src='../static/human_exp_images/task_pos/13_2.png' class=''></img></div>\n\n        </div>","response":null,"trial_type":"html-keyboard-response","trial_index":45,"time_elapsed":123521,"internal_node_id":"0.0-4.0-2.13"},{"rt":1902,"response":0,"all_choices":["../static/human_exp_images/task_pos/14_3.png","../static/human_exp_images/task_pos/14_2.png","../static/human_exp_images/task_pos/14_0.png","../static/human_exp_images/task_pos/14_1.png"],"task":"response","correct_response":0,"shuffled_array":[3,2,0,1],"trial_type":"image-click","trial_index":46,"time_elapsed":125426,"internal_node_id":"0.0-4.0-0.14","mouse_tracking_data":[{"x":905,"y":559,"t":1059,"event":"mousemove"},{"x":905,"y":556,"t":1060,"event":"mousemove"},{"x":905,"y":547,"t":1069,"event":"mousemove"},{"x":905,"y":544,"t":1071,"event":"mousemove"},{"x":899,"y":534,"t":1078,"event":"mousemove"},{"x":899,"y":531,"t":1082,"event":"mousemove"},{"x":896,"y":521,"t":1087,"event":"mousemove"},{"x":894,"y":516,"t":1088,"event":"mousemove"},{"x":886,"y":503,"t":1104,"event":"mousemove"},{"x":873,"y":481,"t":1121,"event":"mousemove"},{"x":856,"y":456,"t":1138,"event":"mousemove"},{"x":831,"y":418,"t":1155,"event":"mousemove"},{"x":819,"y":395,"t":1170,"event":"mousemove"},{"x":800,"y":363,"t":1188,"event":"mousemove"},{"x":789,"y":348,"t":1204,"event":"mousemove"},{"x":779,"y":326,"t":1222,"event":"mousemove"},{"x":766,"y":306,"t":1237,"event":"mousemove"},{"x":759,"y":294,"t":1254,"event":"mousemove"},{"x":748,"y":276,"t":1272,"event":"mousemove"},{"x":743,"y":265,"t":1288,"event":"mousemove"},{"x":738,"y":259,"t":1305,"event":"mousemove"},{"x":732,"y":246,"t":1321,"event":"mousemove"},{"x":725,"y":233,"t":1338,"event":"mousemove"},{"x":721,"y":223,"t":1354,"event":"mousemove"},{"x":716,"y":214,"t":1371,"event":"mousemove"},{"x":714,"y":211,"t":1388,"event":"mousemove"},{"x":712,"y":206,"t":1404,"event":"mousemove"},{"x":712,"y":204,"t":1421,"event":"mousemove"},{"x":711,"y":204,"t":1438,"event":"mousemove"},{"x":710,"y":203,"t":1454,"event":"mousemove"},{"x":708,"y":203,"t":1567,"event":"mousemove"},{"x":706,"y":203,"t":1571,"event":"mousemove"},{"x":705,"y":203,"t":1574,"event":"mousemove"},{"x":703,"y":203,"t":1585,"event":"mousemove"},{"x":701,"y":203,"t":1586,"event":"mousemove"}],"mouse_tracking_targets":{},"correct":true},{"rt":2682,"stimulus":"<p>How different confident are you about your choice ?</p>","slider_start":50,"response":88,"trial_type":"html-slider-response","trial_index":47,"time_elapsed":128109,"internal_node_id":"0.0-4.0-1.14"},{"rt":null,"stimulus":"\n        <div id='jspsych-image' style='position: relative; width: min(80vw, 80vh); height: min(80vw, 80vh);'>\n                \n                <div style='position: absolute; top: 40%; left: 30%; bottom: 40%; right: 30%;'><h1 style='font-size: 60px; color: green;'>Correct!</h1></div>\n                \n                <div class='jspsych-image' id='jspsych-image-0' data-choice='0' style='top: 0;     left: 0;'><img style=\"max-width: 100%; max-height: 100%;\" src='../static/human_exp_images/task_pos/14_3.png' class='correct-choice'></img></div>\n                <div class='jspsych-image' id='jspsych-image-1' data-choice='1' style='top: 0;     right: 0;'><img style=\"max-width: 100%; max-height: 100%;\" src='../static/human_exp_images/task_pos/14_2.png' class=''></img></div>\n                <div class='jspsych-image' id='jspsych-image-2' data-choice='2' style='bottom: 0;  left: 0;'><img style=\"max-width: 100%; max-height: 100%;\" src='../static/human_exp_images/task_pos/14_0.png' class=''></img></div>\n                <div class='jspsych-image' id='jspsych-image-3' data-choice='3' style='bottom: 0;  right: 0;'><img style=\"max-width: 100%; max-height: 100%;\" src='../static/human_exp_images/task_pos/14_1.png' class=''></img></div>\n\n        </div>","response":null,"trial_type":"html-keyboard-response","trial_index":48,"time_elapsed":129611,"internal_node_id":"0.0-4.0-2.14"},{"rt":2177,"response":3,"all_choices":["../static/human_exp_images/task_pos/15_1.png","../static/human_exp_images/task_pos/15_0.png","../static/human_exp_images/task_pos/15_2.png","../static/human_exp_images/task_pos/15_3.png"],"task":"response","correct_response":3,"shuffled_array":[1,0,2,3],"trial_type":"image-click","trial_index":49,"time_elapsed":131789,"internal_node_id":"0.0-4.0-0.15","mouse_tracking_data":[{"x":917,"y":347,"t":829,"event":"mousemove"},{"x":917,"y":347,"t":840,"event":"mousemove"},{"x":916,"y":349,"t":849,"event":"mousemove"},{"x":914,"y":349,"t":859,"event":"mousemove"},{"x":914,"y":351,"t":866,"event":"mousemove"},{"x":912,"y":351,"t":874,"event":"mousemove"},{"x":912,"y":352,"t":882,"event":"mousemove"},{"x":910,"y":352,"t":902,"event":"mousemove"},{"x":909,"y":354,"t":910,"event":"mousemove"},{"x":906,"y":356,"t":920,"event":"mousemove"},{"x":905,"y":356,"t":922,"event":"mousemove"},{"x":901,"y":358,"t":938,"event":"mousemove"},{"x":898,"y":358,"t":956,"event":"mousemove"},{"x":895,"y":360,"t":971,"event":"mousemove"},{"x":894,"y":360,"t":989,"event":"mousemove"},{"x":892,"y":360,"t":1004,"event":"mousemove"},{"x":890,"y":360,"t":1039,"event":"mousemove"},{"x":890,"y":362,"t":1211,"event":"mousemove"},{"x":890,"y":363,"t":1225,"event":"mousemove"},{"x":890,"y":365,"t":1229,"event":"mousemove"},{"x":890,"y":369,"t":1238,"event":"mousemove"},{"x":890,"y":371,"t":1241,"event":"mousemove"},{"x":890,"y":389,"t":1256,"event":"mousemove"},{"x":902,"y":414,"t":1274,"event":"mousemove"},{"x":916,"y":436,"t":1290,"event":"mousemove"},{"x":937,"y":459,"t":1307,"event":"mousemove"},{"x":952,"y":476,"t":1324,"event":"mousemove"},{"x":965,"y":490,"t":1341,"event":"mousemove"},{"x":987,"y":506,"t":1358,"event":"mousemove"},{"x":996,"y":513,"t":1374,"event":"mousemove"},{"x":1014,"y":525,"t":1391,"event":"mousemove"},{"x":1020,"y":531,"t":1407,"event":"mousemove"},{"x":1028,"y":532,"t":1424,"event":"mousemove"},{"x":1029,"y":532,"t":1440,"event":"mousemove"},{"x":1030,"y":532,"t":1493,"event":"mousemove"},{"x":1034,"y":532,"t":1507,"event":"mousemove"},{"x":1040,"y":532,"t":1524,"event":"mousemove"},{"x":1043,"y":532,"t":1540,"event":"mousemove"},{"x":1045,"y":534,"t":1557,"event":"mousemove"},{"x":1048,"y":534,"t":1574,"event":"mousemove"},{"x":1051,"y":534,"t":1590,"event":"mousemove"},{"x":1052,"y":534,"t":1607,"event":"mousemove"},{"x":1054,"y":534,"t":1630,"event":"mousemove"},{"x":1056,"y":534,"t":1647,"event":"mousemove"},{"x":1054,"y":534,"t":1883,"event":"mousemove"}],"mouse_tracking_targets":{},"correct":true},{"rt":2864,"stimulus":"<p>How different confident are you about your choice ?</p>","slider_start":50,"response":87,"trial_type":"html-slider-response","trial_index":50,"time_elapsed":134656,"internal_node_id":"0.0-4.0-1.15"},{"rt":null,"stimulus":"\n        <div id='jspsych-image' style='position: relative; width: min(80vw, 80vh); height: min(80vw, 80vh);'>\n                \n                <div style='position: absolute; top: 40%; left: 30%; bottom: 40%; right: 30%;'><h1 style='font-size: 60px; color: green;'>Correct!</h1></div>\n                \n                <div class='jspsych-image' id='jspsych-image-0' data-choice='0' style='top: 0;     left: 0;'><img style=\"max-width: 100%; max-height: 100%;\" src='../static/human_exp_images/task_pos/15_1.png' class=''></img></div>\n                <div class='jspsych-image' id='jspsych-image-1' data-choice='1' style='top: 0;     right: 0;'><img style=\"max-width: 100%; max-height: 100%;\" src='../static/human_exp_images/task_pos/15_0.png' class=''></img></div>\n                <div class='jspsych-image' id='jspsych-image-2' data-choice='2' style='bottom: 0;  left: 0;'><img style=\"max-width: 100%; max-height: 100%;\" src='../static/human_exp_images/task_pos/15_2.png' class=''></img></div>\n                <div class='jspsych-image' id='jspsych-image-3' data-choice='3' style='bottom: 0;  right: 0;'><img style=\"max-width: 100%; max-height: 100%;\" src='../static/human_exp_images/task_pos/15_3.png' class='correct-choice'></img></div>\n\n        </div>","response":null,"trial_type":"html-keyboard-response","trial_index":51,"time_elapsed":136161,"internal_node_id":"0.0-4.0-2.15"},{"rt":2479,"response":2,"all_choices":["../static/human_exp_images/task_pos/16_1.png","../static/human_exp_images/task_pos/16_2.png","../static/human_exp_images/task_pos/16_3.png","../static/human_exp_images/task_pos/16_0.png"],"task":"response","correct_response":2,"shuffled_array":[1,2,3,0],"trial_type":"image-click","trial_index":52,"time_elapsed":138647,"internal_node_id":"0.0-4.0-0.16","mouse_tracking_data":[{"x":893,"y":548,"t":790,"event":"mousemove"},{"x":893,"y":546,"t":812,"event":"mousemove"},{"x":894,"y":546,"t":817,"event":"mousemove"},{"x":894,"y":545,"t":826,"event":"mousemove"},{"x":894,"y":544,"t":836,"event":"mousemove"},{"x":896,"y":540,"t":843,"event":"mousemove"},{"x":896,"y":538,"t":847,"event":"mousemove"},{"x":896,"y":535,"t":854,"event":"mousemove"},{"x":896,"y":534,"t":857,"event":"mousemove"},{"x":897,"y":533,"t":863,"event":"mousemove"},{"x":897,"y":531,"t":867,"event":"mousemove"},{"x":899,"y":529,"t":870,"event":"mousemove"},{"x":899,"y":527,"t":871,"event":"mousemove"},{"x":899,"y":526,"t":887,"event":"mousemove"},{"x":904,"y":517,"t":904,"event":"mousemove"},{"x":907,"y":507,"t":920,"event":"mousemove"},{"x":908,"y":502,"t":937,"event":"mousemove"},{"x":910,"y":500,"t":954,"event":"mousemove"},{"x":910,"y":498,"t":971,"event":"mousemove"},{"x":910,"y":496,"t":988,"event":"mousemove"},{"x":910,"y":495,"t":1150,"event":"mousemove"},{"x":910,"y":493,"t":1255,"event":"mousemove"},{"x":911,"y":491,"t":1274,"event":"mousemove"},{"x":911,"y":490,"t":1276,"event":"mousemove"},{"x":913,"y":490,"t":1283,"event":"mousemove"},{"x":913,"y":489,"t":1287,"event":"mousemove"},{"x":915,"y":487,"t":1292,"event":"mousemove"},{"x":916,"y":485,"t":1302,"event":"mousemove"},{"x":916,"y":484,"t":1303,"event":"mousemove"},{"x":918,"y":482,"t":1320,"event":"mousemove"},{"x":918,"y":480,"t":1330,"event":"mousemove"},{"x":918,"y":479,"t":1347,"event":"mousemove"},{"x":918,"y":478,"t":1375,"event":"mousemove"},{"x":918,"y":476,"t":1394,"event":"mousemove"},{"x":918,"y":474,"t":1395,"event":"mousemove"},{"x":918,"y":473,"t":1411,"event":"mousemove"},{"x":918,"y":468,"t":1428,"event":"mousemove"},{"x":918,"y":462,"t":1444,"event":"mousemove"},{"x":908,"y":453,"t":1462,"event":"mousemove"},{"x":894,"y":439,"t":1478,"event":"mousemove"},{"x":884,"y":426,"t":1495,"event":"mousemove"},{"x":873,"y":414,"t":1511,"event":"mousemove"},{"x":866,"y":407,"t":1528,"event":"mousemove"},{"x":862,"y":398,"t":1544,"event":"mousemove"},{"x":857,"y":395,"t":1562,"event":"mousemove"},{"x":855,"y":391,"t":1577,"event":"mousemove"},{"x":855,"y":390,"t":1594,"event":"mousemove"},{"x":854,"y":389,"t":1612,"event":"mousemove"},{"x":853,"y":387,"t":1628,"event":"mousemove"},{"x":851,"y":387,"t":1655,"event":"mousemove"},{"x":849,"y":387,"t":1673,"event":"mousemove"},{"x":848,"y":387,"t":1681,"event":"mousemove"},{"x":846,"y":387,"t":1691,"event":"mousemove"},{"x":844,"y":387,"t":1701,"event":"mousemove"},{"x":843,"y":387,"t":1709,"event":"mousemove"},{"x":842,"y":387,"t":1709,"event":"mousemove"},{"x":840,"y":387,"t":1725,"event":"mousemove"},{"x":837,"y":387,"t":1743,"event":"mousemove"},{"x":832,"y":387,"t":1759,"event":"mousemove"},{"x":828,"y":387,"t":1776,"event":"mousemove"},{"x":820,"y":389,"t":1792,"event":"mousemove"},{"x":803,"y":423,"t":1809,"event":"mousemove"},{"x":790,"y":453,"t":1827,"event":"mousemove"},{"x":779,"y":477,"t":1843,"event":"mousemove"},{"x":764,"y":504,"t":1860,"event":"mousemove"},{"x":757,"y":519,"t":1876,"event":"mousemove"},{"x":751,"y":531,"t":1893,"event":"mousemove"},{"x":747,"y":534,"t":1910,"event":"mousemove"},{"x":740,"y":545,"t":1927,"event":"mousemove"},{"x":723,"y":563,"t":1942,"event":"mousemove"},{"x":706,"y":582,"t":1959,"event":"mousemove"},{"x":698,"y":592,"t":1976,"event":"mousemove"},{"x":689,"y":600,"t":1993,"event":"mousemove"},{"x":687,"y":603,"t":2010,"event":"mousemove"},{"x":685,"y":603,"t":2026,"event":"mousemove"}],"mouse_tracking_targets":{},"correct":true},{"rt":2853,"stimulus":"<p>How different confident are you about your choice ?</p>","slider_start":50,"response":86,"trial_type":"html-slider-response","trial_index":53,"time_elapsed":141504,"internal_node_id":"0.0-4.0-1.16"},{"rt":null,"stimulus":"\n        <div id='jspsych-image' style='position: relative; width: min(80vw, 80vh); height: min(80vw, 80vh);'>\n                \n                <div style='position: absolute; top: 40%; left: 30%; bottom: 40%; right: 30%;'><h1 style='font-size: 60px; color: green;'>Correct!</h1></div>\n                \n                <div class='jspsych-image' id='jspsych-image-0' data-choice='0' style='top: 0;     left: 0;'><img style=\"max-width: 100%; max-height: 100%;\" src='../static/human_exp_images/task_pos/16_1.png' class=''></img></div>\n                <div class='jspsych-image' id='jspsych-image-1' data-choice='1' style='top: 0;     right: 0;'><img style=\"max-width: 100%; max-height: 100%;\" src='../static/human_exp_images/task_pos/16_2.png' class=''></img></div>\n                <div class='jspsych-image' id='jspsych-image-2' data-choice='2' style='bottom: 0;  left: 0;'><img style=\"max-width: 100%; max-height: 100%;\" src='../static/human_exp_images/task_pos/16_3.png' class='correct-choice'></img></div>\n                <div class='jspsych-image' id='jspsych-image-3' data-choice='3' style='bottom: 0;  right: 0;'><img style=\"max-width: 100%; max-height: 100%;\" src='../static/human_exp_images/task_pos/16_0.png' class=''></img></div>\n\n        </div>","response":null,"trial_type":"html-keyboard-response","trial_index":54,"time_elapsed":143009,"internal_node_id":"0.0-4.0-2.16"},{"rt":1791,"response":3,"all_choices":["../static/human_exp_images/task_pos/17_2.png","../static/human_exp_images/task_pos/17_1.png","../static/human_exp_images/task_pos/17_0.png","../static/human_exp_images/task_pos/17_3.png"],"task":"response","correct_response":3,"shuffled_array":[2,1,0,3],"trial_type":"image-click","trial_index":55,"time_elapsed":144804,"internal_node_id":"0.0-4.0-0.17","mouse_tracking_data":[{"x":864,"y":571,"t":958,"event":"mousemove"},{"x":865,"y":571,"t":985,"event":"mousemove"},{"x":867,"y":571,"t":986,"event":"mousemove"},{"x":874,"y":571,"t":1002,"event":"mousemove"},{"x":878,"y":571,"t":1018,"event":"mousemove"},{"x":889,"y":571,"t":1035,"event":"mousemove"},{"x":900,"y":569,"t":1052,"event":"mousemove"},{"x":911,"y":565,"t":1068,"event":"mousemove"},{"x":918,"y":562,"t":1085,"event":"mousemove"},{"x":927,"y":562,"t":1102,"event":"mousemove"},{"x":936,"y":562,"t":1118,"event":"mousemove"},{"x":942,"y":562,"t":1135,"event":"mousemove"},{"x":955,"y":562,"t":1151,"event":"mousemove"},{"x":969,"y":562,"t":1168,"event":"mousemove"},{"x":982,"y":562,"t":1186,"event":"mousemove"},{"x":993,"y":562,"t":1202,"event":"mousemove"},{"x":1001,"y":562,"t":1218,"event":"mousemove"},{"x":1006,"y":562,"t":1235,"event":"mousemove"},{"x":1008,"y":562,"t":1252,"event":"mousemove"},{"x":1010,"y":562,"t":1269,"event":"mousemove"},{"x":1008,"y":562,"t":1451,"event":"mousemove"},{"x":1007,"y":562,"t":1496,"event":"mousemove"}],"mouse_tracking_targets":{},"correct":true},{"rt":4344,"stimulus":"<p>How different confident are you about your choice ?</p>","slider_start":50,"response":73,"trial_type":"html-slider-response","trial_index":56,"time_elapsed":149151,"internal_node_id":"0.0-4.0-1.17"},{"rt":null,"stimulus":"\n        <div id='jspsych-image' style='position: relative; width: min(80vw, 80vh); height: min(80vw, 80vh);'>\n                \n                <div style='position: absolute; top: 40%; left: 30%; bottom: 40%; right: 30%;'><h1 style='font-size: 60px; color: green;'>Correct!</h1></div>\n                \n                <div class='jspsych-image' id='jspsych-image-0' data-choice='0' style='top: 0;     left: 0;'><img style=\"max-width: 100%; max-height: 100%;\" src='../static/human_exp_images/task_pos/17_2.png' class=''></img></div>\n                <div class='jspsych-image' id='jspsych-image-1' data-choice='1' style='top: 0;     right: 0;'><img style=\"max-width: 100%; max-height: 100%;\" src='../static/human_exp_images/task_pos/17_1.png' class=''></img></div>\n                <div class='jspsych-image' id='jspsych-image-2' data-choice='2' style='bottom: 0;  left: 0;'><img style=\"max-width: 100%; max-height: 100%;\" src='../static/human_exp_images/task_pos/17_0.png' class=''></img></div>\n                <div class='jspsych-image' id='jspsych-image-3' data-choice='3' style='bottom: 0;  right: 0;'><img style=\"max-width: 100%; max-height: 100%;\" src='../static/human_exp_images/task_pos/17_3.png' class='correct-choice'></img></div>\n\n        </div>","response":null,"trial_type":"html-keyboard-response","trial_index":57,"time_elapsed":150656,"internal_node_id":"0.0-4.0-2.17"},{"rt":2167,"response":3,"all_choices":["../static/human_exp_images/task_pos/18_2.png","../static/human_exp_images/task_pos/18_1.png","../static/human_exp_images/task_pos/18_0.png","../static/human_exp_images/task_pos/18_3.png"],"task":"response","correct_response":3,"shuffled_array":[2,1,0,3],"trial_type":"image-click","trial_index":58,"time_elapsed":152826,"internal_node_id":"0.0-4.0-0.18","mouse_tracking_data":[{"x":898,"y":559,"t":1361,"event":"mousemove"},{"x":900,"y":559,"t":1397,"event":"mousemove"},{"x":901,"y":559,"t":1401,"event":"mousemove"},{"x":905,"y":559,"t":1406,"event":"mousemove"},{"x":907,"y":559,"t":1407,"event":"mousemove"},{"x":911,"y":559,"t":1424,"event":"mousemove"},{"x":917,"y":559,"t":1440,"event":"mousemove"},{"x":923,"y":559,"t":1456,"event":"mousemove"},{"x":928,"y":559,"t":1474,"event":"mousemove"},{"x":934,"y":559,"t":1490,"event":"mousemove"},{"x":939,"y":559,"t":1506,"event":"mousemove"},{"x":943,"y":559,"t":1523,"event":"mousemove"},{"x":950,"y":559,"t":1540,"event":"mousemove"},{"x":954,"y":559,"t":1557,"event":"mousemove"},{"x":963,"y":559,"t":1573,"event":"mousemove"},{"x":972,"y":559,"t":1590,"event":"mousemove"},{"x":975,"y":559,"t":1607,"event":"mousemove"},{"x":983,"y":559,"t":1623,"event":"mousemove"},{"x":992,"y":559,"t":1640,"event":"mousemove"},{"x":1003,"y":559,"t":1656,"event":"mousemove"},{"x":1014,"y":559,"t":1674,"event":"mousemove"},{"x":1026,"y":559,"t":1689,"event":"mousemove"},{"x":1031,"y":559,"t":1706,"event":"mousemove"},{"x":1040,"y":559,"t":1724,"event":"mousemove"}],"mouse_tracking_targets":{},"correct":true},{"rt":2906,"stimulus":"<p>How different confident are you about your choice ?</p>","slider_start":50,"response":81,"trial_type":"html-slider-response","trial_index":59,"time_elapsed":155735,"internal_node_id":"0.0-4.0-1.18"},{"rt":null,"stimulus":"\n        <div id='jspsych-image' style='position: relative; width: min(80vw, 80vh); height: min(80vw, 80vh);'>\n                \n                <div style='position: absolute; top: 40%; left: 30%; bottom: 40%; right: 30%;'><h1 style='font-size: 60px; color: green;'>Correct!</h1></div>\n                \n                <div class='jspsych-image' id='jspsych-image-0' data-choice='0' style='top: 0;     left: 0;'><img style=\"max-width: 100%; max-height: 100%;\" src='../static/human_exp_images/task_pos/18_2.png' class=''></img></div>\n                <div class='jspsych-image' id='jspsych-image-1' data-choice='1' style='top: 0;     right: 0;'><img style=\"max-width: 100%; max-height: 100%;\" src='../static/human_exp_images/task_pos/18_1.png' class=''></img></div>\n                <div class='jspsych-image' id='jspsych-image-2' data-choice='2' style='bottom: 0;  left: 0;'><img style=\"max-width: 100%; max-height: 100%;\" src='../static/human_exp_images/task_pos/18_0.png' class=''></img></div>\n                <div class='jspsych-image' id='jspsych-image-3' data-choice='3' style='bottom: 0;  right: 0;'><img style=\"max-width: 100%; max-height: 100%;\" src='../static/human_exp_images/task_pos/18_3.png' class='correct-choice'></img></div>\n\n        </div>","response":null,"trial_type":"html-keyboard-response","trial_index":60,"time_elapsed":157238,"internal_node_id":"0.0-4.0-2.18"},{"rt":2032,"response":1,"all_choices":["../static/human_exp_images/task_pos/19_1.png","../static/human_exp_images/task_pos/19_3.png","../static/human_exp_images/task_pos/19_0.png","../static/human_exp_images/task_pos/19_2.png"],"task":"response","correct_response":1,"shuffled_array":[1,3,0,2],"trial_type":"image-click","trial_index":61,"time_elapsed":159273,"internal_node_id":"0.0-4.0-0.19","mouse_tracking_data":[{"x":914,"y":543,"t":1231,"event":"mousemove"},{"x":914,"y":539,"t":1233,"event":"mousemove"},{"x":923,"y":508,"t":1249,"event":"mousemove"},{"x":959,"y":457,"t":1266,"event":"mousemove"},{"x":979,"y":422,"t":1282,"event":"mousemove"},{"x":999,"y":379,"t":1300,"event":"mousemove"},{"x":1012,"y":350,"t":1315,"event":"mousemove"},{"x":1018,"y":329,"t":1332,"event":"mousemove"},{"x":1020,"y":312,"t":1349,"event":"mousemove"},{"x":1025,"y":295,"t":1366,"event":"mousemove"},{"x":1030,"y":282,"t":1383,"event":"mousemove"},{"x":1037,"y":261,"t":1399,"event":"mousemove"},{"x":1042,"y":239,"t":1416,"event":"mousemove"},{"x":1050,"y":227,"t":1433,"event":"mousemove"},{"x":1051,"y":219,"t":1450,"event":"mousemove"},{"x":1051,"y":211,"t":1465,"event":"mousemove"},{"x":1052,"y":206,"t":1482,"event":"mousemove"},{"x":1052,"y":204,"t":1499,"event":"mousemove"},{"x":1054,"y":202,"t":1516,"event":"mousemove"},{"x":1052,"y":202,"t":1714,"event":"mousemove"},{"x":1051,"y":202,"t":1716,"event":"mousemove"},{"x":1049,"y":202,"t":1732,"event":"mousemove"}],"mouse_tracking_targets":{},"correct":true},{"rt":2761,"stimulus":"<p>How different confident are you about your choice ?</p>","slider_start":50,"response":81,"trial_type":"html-slider-response","trial_index":62,"time_elapsed":162036,"internal_node_id":"0.0-4.0-1.19"},{"rt":null,"stimulus":"\n        <div id='jspsych-image' style='position: relative; width: min(80vw, 80vh); height: min(80vw, 80vh);'>\n                \n                <div style='position: absolute; top: 40%; left: 30%; bottom: 40%; right: 30%;'><h1 style='font-size: 60px; color: green;'>Correct!</h1></div>\n                \n                <div class='jspsych-image' id='jspsych-image-0' data-choice='0' style='top: 0;     left: 0;'><img style=\"max-width: 100%; max-height: 100%;\" src='../static/human_e