[{"success":true,"timeout":false,"failed_images":[],"failed_audio":[],"failed_video":[],"trial_type":"preload","trial_index":0,"time_elapsed":14,"internal_node_id":"0.0-0.0"},{"rt":783,"stimulus":"<p style='font-size: 40px'>Welcome to the experiment.</p><p style='font-size: 30px'>Press any key to begin.</p>","response":" ","trial_type":"html-keyboard-response","trial_index":1,"time_elapsed":797,"internal_node_id":"0.0-1.0"},{"rt":3097,"stimulus":"\n    <p>In this experiment, 4 images will appear on the screen. 3 out of 4 images were generated with a certain rule while one image (the odd one out) does not respect this rule. Select the odd one out by clicking on the image.</p>\n    <p>Following your choice, you will be asked to rate how confident you were about your choice on a scale from 1 to 100. Then, you will receive feedback on the trial.</p>\n    <p>For each rule you will perform 20 trials. You will be notified at each rule change. </p>\n    <p> Press any button to continue </p>\n    <div style='margin: auto; position: relative; width: 400px; height: 400px;'>\n        <div style='position: absolute; top: 0;     left: 0; '><img src='../static/img/square.png'></img></div>\n        <div style='position: absolute; top: 0;     right: 0;'><img src='../static/img/square.png'></img></div>\n        <div style='position: absolute; bottom: 0;  left: 0; '><img src='../static/img/square.png'></img></div>\n        <div style='position: absolute; bottom: 0;  right: 0;'><img src='../static/img/square.png'></img></div>\n    </div>\n","response":" ","trial_type":"html-keyboard-response","trial_index":2,"time_elapsed":3896,"internal_node_id":"0.0-2.0"},{"rt":754,"stimulus":"<h1 style='font-size: 60px'>New Rule!</h1> <p>Press any key to begin.</p>","response":" ","trial_type":"html-keyboard-response","trial_index":3,"time_elapsed":6654,"internal_node_id":"0.0-3.0"},{"rt":2092,"response":1,"all_choices":["../static/human_exp_images/task_rot/00_3.png","../static/human_exp_images/task_rot/00_0.png","../static/human_exp_images/task_rot/00_1.png","../static/human_exp_images/task_rot/00_2.png"],"task":"response","correct_response":0,"shuffled_array":[3,0,1,2],"trial_type":"image-click","trial_index":4,"time_elapsed":8751,"internal_node_id":"0.0-4.0-0.0","mouse_tracking_data":[{"x":913,"y":531,"t":776,"event":"mousemove"},{"x":913,"y":533,"t":792,"event":"mousemove"},{"x":913,"y":534,"t":804,"event":"mousemove"},{"x":911,"y":534,"t":902,"event":"mousemove"},{"x":897,"y":505,"t":918,"event":"mousemove"},{"x":879,"y":478,"t":935,"event":"mousemove"},{"x":862,"y":446,"t":951,"event":"mousemove"},{"x":847,"y":413,"t":968,"event":"mousemove"},{"x":836,"y":385,"t":984,"event":"mousemove"},{"x":828,"y":365,"t":1002,"event":"mousemove"},{"x":818,"y":348,"t":1018,"event":"mousemove"},{"x":811,"y":341,"t":1035,"event":"mousemove"},{"x":803,"y":333,"t":1052,"event":"mousemove"},{"x":798,"y":327,"t":1068,"event":"mousemove"},{"x":794,"y":317,"t":1085,"event":"mousemove"},{"x":789,"y":311,"t":1102,"event":"mousemove"},{"x":787,"y":308,"t":1118,"event":"mousemove"},{"x":783,"y":303,"t":1135,"event":"mousemove"},{"x":779,"y":300,"t":1152,"event":"mousemove"},{"x":779,"y":299,"t":1168,"event":"mousemove"},{"x":781,"y":299,"t":1432,"event":"mousemove"},{"x":785,"y":299,"t":1448,"event":"mousemove"},{"x":792,"y":299,"t":1465,"event":"mousemove"},{"x":807,"y":299,"t":1481,"event":"mousemove"},{"x":826,"y":299,"t":1498,"event":"mousemove"},{"x":852,"y":288,"t":1514,"event":"mousemove"},{"x":858,"y":283,"t":1532,"event":"mousemove"},{"x":863,"y":279,"t":1547,"event":"mousemove"},{"x":873,"y":269,"t":1564,"event":"mousemove"},{"x":885,"y":257,"t":1582,"event":"mousemove"},{"x":901,"y":242,"t":1598,"event":"mousemove"},{"x":916,"y":228,"t":1615,"event":"mousemove"},{"x":927,"y":218,"t":1631,"event":"mousemove"},{"x":937,"y":207,"t":1649,"event":"mousemove"},{"x":949,"y":197,"t":1665,"event":"mousemove"},{"x":960,"y":188,"t":1681,"event":"mousemove"},{"x":970,"y":179,"t":1698,"event":"mousemove"},{"x":977,"y":173,"t":1715,"event":"mousemove"},{"x":988,"y":164,"t":1731,"event":"mousemove"},{"x":991,"y":162,"t":1749,"event":"mousemove"},{"x":997,"y":157,"t":1765,"event":"mousemove"},{"x":999,"y":157,"t":1781,"event":"mousemove"},{"x":1001,"y":155,"t":1799,"event":"mousemove"},{"x":1002,"y":155,"t":1815,"event":"mousemove"},{"x":1006,"y":151,"t":1832,"event":"mousemove"},{"x":1013,"y":150,"t":1848,"event":"mousemove"},{"x":1019,"y":149,"t":1865,"event":"mousemove"},{"x":1024,"y":147,"t":1881,"event":"mousemove"},{"x":1030,"y":146,"t":1898,"event":"mousemove"},{"x":1034,"y":146,"t":1916,"event":"mousemove"},{"x":1037,"y":146,"t":1931,"event":"mousemove"},{"x":1039,"y":146,"t":1949,"event":"mousemove"},{"x":1041,"y":146,"t":1965,"event":"mousemove"},{"x":1043,"y":146,"t":1982,"event":"mousemove"},{"x":1045,"y":146,"t":1998,"event":"mousemove"},{"x":1046,"y":146,"t":2015,"event":"mousemove"}],"mouse_tracking_targets":{},"correct":false},{"rt":2785,"stimulus":"<p>How confident are you about your choice ?</p>","slider_start":50,"response":78,"trial_type":"html-slider-response","trial_index":5,"time_elapsed":11538,"internal_node_id":"0.0-4.0-1.0"},{"rt":null,"stimulus":"\n        <div id='jspsych-image' style='position: relative; width: min(80vw, 80vh); height: min(80vw, 80vh);'>\n                \n                <div style='position: absolute; top: 40%; left: 30%; bottom: 40%; right: 30%;'><h1 style='font-size: 60px; color: red'>Wrong</h1></div>\n                \n                <div class='jspsych-image' id='jspsych-image-0' data-choice='0' style='top: 0;     left: 0;'><img style=\"max-width: 100%; max-height: 100%;\" src='../static/human_exp_images/task_rot/00_3.png' class='correct-choice'></img></div>\n                <div class='jspsych-image' id='jspsych-image-1' data-choice='1' style='top: 0;     right: 0;'><img style=\"max-width: 100%; max-height: 100%;\" src='../static/human_exp_images/task_rot/00_0.png' class='wrong-choice'></img></div>\n                <div class='jspsych-image' id='jspsych-image-2' data-choice='2' style='bottom: 0;  left: 0;'><img style=\"max-width: 100%; max-height: 100%;\" src='../static/human_exp_images/task_rot/00_1.png' class=''></img></div>\n                <div class='jspsych-image' id='jspsych-image-3' data-choice='3' style='bottom: 0;  right: 0;'><img style=\"max-width: 100%; max-height: 100%;\" src='../static/human_exp_images/task_rot/00_2.png' class=''></img></div>\n\n        </div>","response":null,"trial_type":"html-keyboard-response","trial_index":6,"time_elapsed":14043,"internal_node_id":"0.0-4.0-2.0"},{"rt":1121,"stimulus":"<p>You responded correctly on 0% of the trials.</p>\n    <p>Your average response time was NaNms.</p>\n    <p>Press any key to complete the experiment. Thank you!</p>","response":" ","trial_type":"html-keyboard-response","trial_index":7,"time_elapsed":15167,"internal_node_id":"0.0-5.0","interactions":"[]"}]