[{"success":true,"timeout":false,"failed_images":[],"failed_audio":[],"failed_video":[],"trial_type":"preload","trial_index":0,"time_elapsed":15,"internal_node_id":"0.0-0.0"},{"rt":1991,"stimulus":"<p style='font-size: 40px'>Welcome to the experiment.</p><p style='font-size: 30px'>Press any key to begin.</p>","response":" ","trial_type":"html-keyboard-response","trial_index":1,"time_elapsed":2006,"internal_node_id":"0.0-1.0"},{"rt":3791,"stimulus":"\n    <p>In this experiment, 4 images will appear on the screen. 3 out of 4 images were generated with a certain rule while one image (the odd one out) does not respect this rule. Select the odd one out by clicking on the image.</p>\n    <p>Following your choice, you will be asked to rate how confident you were about your choice on a scale from 1 to 100. Then, you will receive feedback on the trial.</p>\n    <p>For each rule you will perform 20 trials. You will be notified at each rule change. </p>\n    <p> Press any button to continue </p>\n    <div style='margin: auto; position: relative; width: 400px; height: 400px;'>\n        <div style='position: absolute; top: 0;     left: 0; '><img src='../static/img/square.png'></img></div>\n        <div style='position: absolute; top: 0;     right: 0;'><img src='../static/img/square.png'></img></div>\n        <div style='position: absolute; bottom: 0;  left: 0; '><img src='../static/img/square.png'></img></div>\n        <div style='position: absolute; bottom: 0;  right: 0;'><img src='../static/img/square.png'></img></div>\n    </div>\n","response":" ","trial_type":"html-keyboard-response","trial_index":2,"time_elapsed":5799,"internal_node_id":"0.0-2.0"},{"rt":765,"stimulus":"<h1 style='font-size: 60px'>New Rule!</h1> <p>Press any key to begin.</p>","response":" ","trial_type":"html-keyboard-response","trial_index":3,"time_elapsed":8566,"internal_node_id":"0.0-3.0"},{"rt":873,"response":2,"all_choices":["../static/human_exp_images/task_color/00_1.png","../static/human_exp_images/task_color/00_3.png","../static/human_exp_images/task_color/00_2.png","../static/human_exp_images/task_color/00_0.png"],"task":"response","correct_response":1,"shuffled_array":[1,3,2,0],"trial_type":"image-click","trial_index":4,"time_elapsed":9444,"internal_node_id":"0.0-4.0-0.0","mouse_tracking_data":[{"x":914,"y":522,"t":399,"event":"mousemove"},{"x":908,"y":522,"t":404,"event":"mousemove"},{"x":906,"y":522,"t":408,"event":"mousemove"},{"x":899,"y":522,"t":414,"event":"mousemove"},{"x":897,"y":522,"t":418,"event":"mousemove"},{"x":888,"y":522,"t":422,"event":"mousemove"},{"x":873,"y":522,"t":439,"event":"mousemove"},{"x":852,"y":522,"t":456,"event":"mousemove"},{"x":834,"y":522,"t":473,"event":"mousemove"},{"x":818,"y":522,"t":489,"event":"mousemove"},{"x":805,"y":523,"t":505,"event":"mousemove"},{"x":798,"y":526,"t":522,"event":"mousemove"},{"x":787,"y":529,"t":539,"event":"mousemove"},{"x":776,"y":533,"t":556,"event":"mousemove"},{"x":765,"y":537,"t":573,"event":"mousemove"},{"x":738,"y":545,"t":589,"event":"mousemove"},{"x":727,"y":546,"t":607,"event":"mousemove"},{"x":724,"y":546,"t":623,"event":"mousemove"},{"x":722,"y":546,"t":640,"event":"mousemove"},{"x":720,"y":548,"t":657,"event":"mousemove"},{"x":709,"y":554,"t":673,"event":"mousemove"},{"x":696,"y":560,"t":689,"event":"mousemove"},{"x":688,"y":565,"t":707,"event":"mousemove"},{"x":682,"y":569,"t":723,"event":"mousemove"},{"x":680,"y":571,"t":739,"event":"mousemove"},{"x":677,"y":573,"t":756,"event":"mousemove"}],"mouse_tracking_targets":{},"correct":false},{"rt":1636,"stimulus":"<p>How confident are you about your choice ?</p>","slider_start":50,"response":50,"trial_type":"html-slider-response","trial_index":5,"time_elapsed":11083,"internal_node_id":"0.0-4.0-1.0"},{"rt":null,"stimulus":"\n        <div id='jspsych-image' style='position: relative; width: min(80vw, 80vh); height: min(80vw, 80vh);'>\n                \n                <div style='position: absolute; top: 40%; left: 30%; bottom: 40%; right: 30%;'><h1 style='font-size: 60px; color: red'>Wrong</h1></div>\n                \n                <div class='jspsych-image' id='jspsych-image-0' data-choice='0' style='top: 0;     left: 0;'><img style=\"max-width: 100%; max-height: 100%;\" src='../static/human_exp_images/task_color/00_1.png' class=''></img></div>\n                <div class='jspsych-image' id='jspsych-image-1' data-choice='1' style='top: 0;     right: 0;'><img style=\"max-width: 100%; max-height: 100%;\" src='../static/human_exp_images/task_color/00_3.png' class='correct-choice'></img></div>\n                <div class='jspsych-image' id='jspsych-image-2' data-choice='2' style='bottom: 0;  left: 0;'><img style=\"max-width: 100%; max-height: 100%;\" src='../static/human_exp_images/task_color/00_2.png' class='wrong-choice'></img></div>\n                <div class='jspsych-image' id='jspsych-image-3' data-choice='3' style='bottom: 0;  right: 0;'><img style=\"max-width: 100%; max-height: 100%;\" src='../static/human_exp_images/task_color/00_0.png' class=''></img></div>\n\n        </div>","response":null,"trial_type":"html-keyboard-response","trial_index":6,"time_elapsed":13586,"internal_node_id":"0.0-4.0-2.0"},{"rt":987,"stimulus":"<p>You responded correctly on 0% of the trials.</p>\n    <p>Your average response time was NaNms.</p>\n    <p>Press any key to complete the experiment. Thank you!</p>","response":" ","trial_type":"html-keyboard-response","trial_index":7,"time_elapsed":14573,"internal_node_id":"0.0-5.0","interactions":"[]"}]