[{"rt":null,"trial_type":"image-click","trial_index":3,"time_elapsed":5868,"internal_node_id":"0.0-3.0-0.0"},{"rt":917,"response":3,"all_choices":["../static/human_exp_images/practice_img/00_0.png","../static/human_exp_images/practice_img/00_2.png","../static/human_exp_images/practice_img/00_1.png","../static/human_exp_images/practice_img/00_3.png"],"task":"response","correct_response":3,"shuffled_array":[0,2,1,3],"catch_trial":false,"trial_type":"image-click","trial_index":4,"time_elapsed":6787,"internal_node_id":"0.0-3.0-1.0","mouse_tracking_data":[{"x":989,"y":544,"t":1,"event":"mousemove"},{"x":979,"y":525,"t":16,"event":"mousemove"},{"x":969,"y":511,"t":34,"event":"mousemove"},{"x":959,"y":494,"t":49,"event":"mousemove"},{"x":953,"y":479,"t":67,"event":"mousemove"},{"x":948,"y":471,"t":83,"event":"mousemove"},{"x":948,"y":469,"t":99,"event":"mousemove"},{"x":948,"y":467,"t":116,"event":"mousemove"},{"x":948,"y":465,"t":406,"event":"mousemove"},{"x":947,"y":464,"t":515,"event":"mousemove"},{"x":947,"y":462,"t":518,"event":"mousemove"},{"x":947,"y":460,"t":525,"event":"mousemove"},{"x":945,"y":459,"t":533,"event":"mousemove"},{"x":945,"y":457,"t":534,"event":"mousemove"},{"x":945,"y":454,"t":541,"event":"mousemove"},{"x":945,"y":452,"t":543,"event":"mousemove"},{"x":945,"y":450,"t":551,"event":"mousemove"},{"x":945,"y":448,"t":554,"event":"mousemove"},{"x":945,"y":445,"t":560,"event":"mousemove"},{"x":945,"y":442,"t":569,"event":"mousemove"},{"x":945,"y":440,"t":579,"event":"mousemove"},{"x":945,"y":438,"t":580,"event":"mousemove"},{"x":945,"y":436,"t":597,"event":"mousemove"},{"x":947,"y":436,"t":634,"event":"mousemove"},{"x":948,"y":436,"t":635,"event":"mousemove"},{"x":955,"y":436,"t":642,"event":"mousemove"},{"x":959,"y":438,"t":644,"event":"mousemove"},{"x":968,"y":448,"t":651,"event":"mousemove"},{"x":973,"y":453,"t":655,"event":"mousemove"},{"x":989,"y":468,"t":660,"event":"mousemove"},{"x":995,"y":478,"t":666,"event":"mousemove"},{"x":1010,"y":493,"t":670,"event":"mousemove"},{"x":1021,"y":504,"t":671,"event":"mousemove"},{"x":1039,"y":526,"t":679,"event":"mousemove"},{"x":1046,"y":536,"t":681,"event":"mousemove"},{"x":1064,"y":553,"t":691,"event":"mousemove"},{"x":1074,"y":564,"t":694,"event":"mousemove"},{"x":1087,"y":577,"t":699,"event":"mousemove"},{"x":1093,"y":583,"t":706,"event":"mousemove"},{"x":1110,"y":601,"t":719,"event":"mousemove"},{"x":1143,"y":626,"t":736,"event":"mousemove"},{"x":1155,"y":635,"t":751,"event":"mousemove"},{"x":1160,"y":639,"t":769,"event":"mousemove"},{"x":1165,"y":642,"t":784,"event":"mousemove"}],"mouse_tracking_targets":{},"correct":true},{"rt":653,"stimulus":"<p>How confident are you about your choice ?</p>","slider_start":50,"response":85,"trial_type":"html-slider-response","trial_index":5,"time_elapsed":7442,"internal_node_id":"0.0-3.0-2.0"},{"rt":null,"stimulus":"\n        <div id='jspsych-image' style='position: relative; width: min(80vw, 80vh); height: min(80vw, 80vh);'>\n                \n                <div style='position: absolute; top: 40%; left: 30%; bottom: 40%; right: 30%;'><h1 style='font-size: 60px; color: green;'>Correct!</h1></div>\n                \n                <div class='jspsych-image' id='jspsych-image-0' data-choice='0' style='top: 0;     left: 0;'><img style=\"width: 100%; height: 100%;\" src='../static/human_exp_images/practice_img/00_0.png' class=''></img></div>\n                <div class='jspsych-image' id='jspsych-image-1' data-choice='1' style='top: 0;     right: 0;'><img style=\"width: 100%; height: 100%;\" src='../static/human_exp_images/practice_img/00_2.png' class=''></img></div>\n                <div class='jspsych-image' id='jspsych-image-2' data-choice='2' style='bottom: 0;  left: 0;'><img style=\"width: 100%; height: 100%;\" src='../static/human_exp_images/practice_img/00_1.png' class=''></img></div>\n                <div class='jspsych-image' id='jspsych-image-3' data-choice='3' style='bottom: 0;  right: 0;'><img style=\"width: 100%; height: 100%;\" src='../static/human_exp_images/practice_img/00_3.png' class='correct-choice'></img></div>\n\n        </div>","response":null,"trial_type":"html-keyboard-response","trial_index":6,"time_elapsed":8943,"internal_node_id":"0.0-3.0-3.0"},{"rt":null,"trial_type":"image-click","trial_index":7,"time_elapsed":9402,"internal_node_id":"0.0-3.0-0.1"},{"rt":1116,"response":0,"all_choices":["../static/human_exp_images/practice_img/01_3.png","../static/human_exp_images/practice_img/01_2.png","../static/human_exp_images/practice_img/01_0.png","../static/human_exp_images/practice_img/01_1.png"],"task":"response","correct_response":0,"shuffled_array":[3,2,0,1],"catch_trial":false,"trial_type":"image-click","trial_index":8,"time_elapsed":10523,"internal_node_id":"0.0-3.0-1.1","mouse_tracking_data":[{"x":1037,"y":458,"t":1,"event":"mousemove"},{"x":1028,"y":447,"t":12,"event":"mousemove"},{"x":1025,"y":446,"t":29,"event":"mousemove"},{"x":1023,"y":446,"t":46,"event":"mousemove"},{"x":1020,"y":446,"t":62,"event":"mousemove"},{"x":1011,"y":446,"t":78,"event":"mousemove"},{"x":1003,"y":446,"t":96,"event":"mousemove"},{"x":998,"y":446,"t":113,"event":"mousemove"},{"x":996,"y":446,"t":130,"event":"mousemove"},{"x":989,"y":446,"t":147,"event":"mousemove"},{"x":986,"y":446,"t":163,"event":"mousemove"},{"x":984,"y":446,"t":180,"event":"mousemove"},{"x":986,"y":446,"t":325,"event":"mousemove"},{"x":987,"y":449,"t":331,"event":"mousemove"},{"x":989,"y":449,"t":334,"event":"mousemove"},{"x":991,"y":453,"t":340,"event":"mousemove"},{"x":991,"y":454,"t":344,"event":"mousemove"},{"x":994,"y":456,"t":350,"event":"mousemove"},{"x":994,"y":458,"t":351,"event":"mousemove"},{"x":996,"y":461,"t":366,"event":"mousemove"},{"x":1001,"y":466,"t":384,"event":"mousemove"},{"x":1006,"y":473,"t":400,"event":"mousemove"},{"x":1016,"y":482,"t":417,"event":"mousemove"},{"x":1030,"y":490,"t":433,"event":"mousemove"},{"x":1054,"y":512,"t":450,"event":"mousemove"},{"x":1073,"y":529,"t":467,"event":"mousemove"},{"x":1085,"y":544,"t":483,"event":"mousemove"},{"x":1101,"y":566,"t":501,"event":"mousemove"},{"x":1111,"y":578,"t":517,"event":"mousemove"},{"x":1118,"y":602,"t":534,"event":"mousemove"},{"x":1121,"y":608,"t":551,"event":"mousemove"},{"x":1121,"y":610,"t":567,"event":"mousemove"},{"x":1116,"y":607,"t":613,"event":"mousemove"},{"x":1113,"y":599,"t":616,"event":"mousemove"},{"x":1075,"y":548,"t":634,"event":"mousemove"},{"x":1047,"y":517,"t":651,"event":"mousemove"},{"x":999,"y":460,"t":667,"event":"mousemove"},{"x":972,"y":434,"t":683,"event":"mousemove"},{"x":931,"y":393,"t":701,"event":"mousemove"},{"x":902,"y":361,"t":717,"event":"mousemove"},{"x":881,"y":340,"t":734,"event":"mousemove"},{"x":875,"y":329,"t":750,"event":"mousemove"},{"x":869,"y":325,"t":768,"event":"mousemove"},{"x":861,"y":316,"t":784,"event":"mousemove"},{"x":852,"y":310,"t":801,"event":"mousemove"},{"x":840,"y":299,"t":817,"event":"mousemove"},{"x":830,"y":289,"t":834,"event":"mousemove"},{"x":818,"y":274,"t":850,"event":"mousemove"},{"x":813,"y":265,"t":867,"event":"mousemove"},{"x":808,"y":260,"t":884,"event":"mousemove"},{"x":803,"y":253,"t":900,"event":"mousemove"},{"x":801,"y":250,"t":918,"event":"mousemove"},{"x":801,"y":248,"t":934,"event":"mousemove"},{"x":799,"y":248,"t":969,"event":"mousemove"},{"x":799,"y":246,"t":1062,"event":"mousemove"}],"mouse_tracking_targets":{},"correct":true},{"rt":1777,"stimulus":"<p>How confident are you about your choice ?</p>","slider_start":50,"response":98,"trial_type":"html-slider-response","trial_index":9,"time_elapsed":12303,"internal_node_id":"0.0-3.0-2.1"},{"rt":null,"stimulus":"\n        <div id='jspsych-image' style='position: relative; width: min(80vw, 80vh); height: min(80vw, 80vh);'>\n                \n                <div style='position: absolute; top: 40%; left: 30%; bottom: 40%; right: 30%;'><h1 style='font-size: 60px; color: green;'>Correct!</h1></div>\n                \n                <div class='jspsych-image' id='jspsych-image-0' data-choice='0' style='top: 0;     left: 0;'><img style=\"width: 100%; height: 100%;\" src='../static/human_exp_images/practice_img/01_3.png' class='correct-choice'></img></div>\n                <div class='jspsych-image' id='jspsych-image-1' data-choice='1' style='top: 0;     right: 0;'><img style=\"width: 100%; height: 100%;\" src='../static/human_exp_images/practice_img/01_2.png' class=''></img></div>\n                <div class='jspsych-image' id='jspsych-image-2' data-choice='2' style='bottom: 0;  left: 0;'><img style=\"width: 100%; height: 100%;\" src='../static/human_exp_images/practice_img/01_0.png' class=''></img></div>\n                <div class='jspsych-image' id='jspsych-image-3' data-choice='3' style='bottom: 0;  right: 0;'><img style=\"width: 100%; height: 100%;\" src='../static/human_exp_images/practice_img/01_1.png' class=''></img></div>\n\n        </div>","response":null,"trial_type":"html-keyboard-response","trial_index":10,"time_elapsed":13808,"internal_node_id":"0.0-3.0-3.1"},{"rt":null,"trial_type":"image-click","trial_index":11,"time_elapsed":14195,"internal_node_id":"0.0-3.0-0.2"},{"rt":873,"response":3,"all_choices":["../static/human_exp_images/practice_img/02_0.png","../static/human_exp_images/practice_img/02_1.png","../static/human_exp_images/practice_img/02_2.png","../static/human_exp_images/practice_img/02_3.png"],"task":"response","correct_response":3,"shuffled_array":[0,1,2,3],"catch_trial":false,"trial_type":"image-click","trial_index":12,"time_elapsed":15072,"internal_node_id":"0.0-3.0-1.2","mouse_tracking_data":[{"x":1049,"y":466,"t":1,"event":"mousemove"},{"x":1035,"y":466,"t":12,"event":"mousemove"},{"x":1021,"y":466,"t":29,"event":"mousemove"},{"x":1008,"y":466,"t":45,"event":"mousemove"},{"x":996,"y":466,"t":62,"event":"mousemove"},{"x":989,"y":466,"t":78,"event":"mousemove"},{"x":980,"y":466,"t":95,"event":"mousemove"},{"x":974,"y":466,"t":113,"event":"mousemove"},{"x":970,"y":466,"t":128,"event":"mousemove"},{"x":969,"y":466,"t":145,"event":"mousemove"},{"x":967,"y":466,"t":163,"event":"mousemove"},{"x":968,"y":466,"t":568,"event":"mousemove"},{"x":970,"y":466,"t":569,"event":"mousemove"},{"x":980,"y":466,"t":586,"event":"mousemove"},{"x":997,"y":488,"t":603,"event":"mousemove"},{"x":1010,"y":505,"t":618,"event":"mousemove"},{"x":1034,"y":540,"t":636,"event":"mousemove"},{"x":1053,"y":574,"t":652,"event":"mousemove"},{"x":1074,"y":602,"t":670,"event":"mousemove"},{"x":1083,"y":616,"t":685,"event":"mousemove"},{"x":1095,"y":632,"t":702,"event":"mousemove"},{"x":1100,"y":644,"t":720,"event":"mousemove"},{"x":1104,"y":652,"t":735,"event":"mousemove"},{"x":1109,"y":666,"t":752,"event":"mousemove"},{"x":1109,"y":674,"t":768,"event":"mousemove"},{"x":1111,"y":679,"t":786,"event":"mousemove"}],"mouse_tracking_targets":{},"correct":true},{"rt":1450,"stimulus":"<p>How confident are you about your choice ?</p>","slider_start":50,"response":97,"trial_type":"html-slider-response","trial_index":13,"time_elapsed":16523,"internal_node_id":"0.0-3.0-2.2"},{"rt":null,"stimulus":"\n        <div id='jspsych-image' style='position: relative; width: min(80vw, 80vh); height: min(80vw, 80vh);'>\n                \n                <div style='position: absolute; top: 40%; left: 30%; bottom: 40%; right: 30%;'><h1 style='font-size: 60px; color: green;'>Correct!</h1></div>\n                \n                <div class='jspsych-image' id='jspsych-image-0' data-choice='0' style='top: 0;     left: 0;'><img style=\"width: 100%; height: 100%;\" src='../static/human_exp_images/practice_img/02_0.png' class=''></img></div>\n                <div class='jspsych-image' id='jspsych-image-1' data-choice='1' style='top: 0;     right: 0;'><img style=\"width: 100%; height: 100%;\" src='../static/human_exp_images/practice_img/02_1.png' class=''></img></div>\n                <div class='jspsych-image' id='jspsych-image-2' data-choice='2' style='bottom: 0;  left: 0;'><img style=\"width: 100%; height: 100%;\" src='../static/human_exp_images/practice_img/02_2.png' class=''></img></div>\n                <div class='jspsych-image' id='jspsych-image-3' data-choice='3' style='bottom: 0;  right: 0;'><img style=\"width: 100%; height: 100%;\" src='../static/human_exp_images/practice_img/02_3.png' class='correct-choice'></img></div>\n\n        </div>","response":null,"trial_type":"html-keyboard-response","trial_index":14,"time_elapsed":18025,"internal_node_id":"0.0-3.0-3.2"}]