[{"rt":null,"trial_type":"image-click","trial_index":104,"time_elapsed":200095,"internal_node_id":"0.0-10.0-0.0"},{"rt":2210,"response":3,"all_choices":["../static/human_exp_images/task_color/00_2.png","../static/human_exp_images/task_color/00_1.png","../static/human_exp_images/task_color/00_0.png","../static/human_exp_images/task_color/00_3.png"],"task":"response","correct_response":3,"shuffled_array":[2,1,0,3],"catch_trial":false,"trial_type":"image-click","trial_index":105,"time_elapsed":202307,"internal_node_id":"0.0-10.0-1.0","mouse_tracking_data":[{"x":1047,"y":513,"t":0,"event":"mousemove"},{"x":1035,"y":501,"t":15,"event":"mousemove"},{"x":1026,"y":494,"t":33,"event":"mousemove"},{"x":1021,"y":491,"t":48,"event":"mousemove"},{"x":1017,"y":487,"t":66,"event":"mousemove"},{"x":1014,"y":484,"t":82,"event":"mousemove"},{"x":1011,"y":480,"t":100,"event":"mousemove"},{"x":1007,"y":480,"t":115,"event":"mousemove"},{"x":1006,"y":479,"t":132,"event":"mousemove"},{"x":1000,"y":474,"t":149,"event":"mousemove"},{"x":999,"y":472,"t":166,"event":"mousemove"},{"x":997,"y":470,"t":184,"event":"mousemove"},{"x":997,"y":468,"t":211,"event":"mousemove"},{"x":997,"y":467,"t":239,"event":"mousemove"},{"x":998,"y":467,"t":819,"event":"mousemove"},{"x":1000,"y":467,"t":833,"event":"mousemove"},{"x":1002,"y":467,"t":841,"event":"mousemove"},{"x":1004,"y":467,"t":853,"event":"mousemove"},{"x":1005,"y":467,"t":868,"event":"mousemove"},{"x":1007,"y":467,"t":887,"event":"mousemove"},{"x":1009,"y":467,"t":899,"event":"mousemove"},{"x":1010,"y":467,"t":905,"event":"mousemove"},{"x":1012,"y":467,"t":915,"event":"mousemove"},{"x":1014,"y":467,"t":931,"event":"mousemove"},{"x":1016,"y":467,"t":941,"event":"mousemove"},{"x":1017,"y":467,"t":950,"event":"mousemove"},{"x":1017,"y":468,"t":959,"event":"mousemove"},{"x":1019,"y":468,"t":961,"event":"mousemove"},{"x":1021,"y":472,"t":977,"event":"mousemove"},{"x":1022,"y":472,"t":994,"event":"mousemove"},{"x":1026,"y":475,"t":1009,"event":"mousemove"},{"x":1029,"y":477,"t":1027,"event":"mousemove"},{"x":1033,"y":479,"t":1043,"event":"mousemove"},{"x":1038,"y":482,"t":1060,"event":"mousemove"},{"x":1043,"y":484,"t":1076,"event":"mousemove"},{"x":1045,"y":487,"t":1094,"event":"mousemove"},{"x":1050,"y":489,"t":1110,"event":"mousemove"},{"x":1055,"y":492,"t":1126,"event":"mousemove"},{"x":1057,"y":494,"t":1143,"event":"mousemove"},{"x":1060,"y":496,"t":1161,"event":"mousemove"},{"x":1063,"y":499,"t":1177,"event":"mousemove"},{"x":1067,"y":503,"t":1194,"event":"mousemove"},{"x":1072,"y":508,"t":1210,"event":"mousemove"},{"x":1077,"y":511,"t":1226,"event":"mousemove"},{"x":1082,"y":516,"t":1244,"event":"mousemove"},{"x":1086,"y":520,"t":1260,"event":"mousemove"},{"x":1087,"y":521,"t":1278,"event":"mousemove"},{"x":1089,"y":523,"t":1286,"event":"mousemove"},{"x":1091,"y":523,"t":1289,"event":"mousemove"},{"x":1091,"y":525,"t":1295,"event":"mousemove"},{"x":1092,"y":525,"t":1300,"event":"mousemove"},{"x":1094,"y":526,"t":1304,"event":"mousemove"},{"x":1094,"y":528,"t":1306,"event":"mousemove"},{"x":1096,"y":530,"t":1322,"event":"mousemove"},{"x":1103,"y":537,"t":1339,"event":"mousemove"},{"x":1109,"y":544,"t":1355,"event":"mousemove"},{"x":1116,"y":552,"t":1372,"event":"mousemove"},{"x":1121,"y":559,"t":1388,"event":"mousemove"},{"x":1127,"y":564,"t":1405,"event":"mousemove"},{"x":1133,"y":573,"t":1422,"event":"mousemove"},{"x":1137,"y":578,"t":1439,"event":"mousemove"},{"x":1142,"y":587,"t":1456,"event":"mousemove"},{"x":1145,"y":592,"t":1472,"event":"mousemove"},{"x":1149,"y":597,"t":1489,"event":"mousemove"},{"x":1151,"y":599,"t":1505,"event":"mousemove"},{"x":1151,"y":600,"t":1522,"event":"mousemove"},{"x":1152,"y":602,"t":1540,"event":"mousemove"},{"x":1154,"y":605,"t":1555,"event":"mousemove"},{"x":1156,"y":607,"t":1572,"event":"mousemove"},{"x":1157,"y":610,"t":1588,"event":"mousemove"},{"x":1157,"y":614,"t":1606,"event":"mousemove"},{"x":1157,"y":616,"t":1621,"event":"mousemove"},{"x":1157,"y":619,"t":1639,"event":"mousemove"},{"x":1157,"y":621,"t":1657,"event":"mousemove"},{"x":1157,"y":624,"t":1672,"event":"mousemove"}],"mouse_tracking_targets":{},"correct":true},{"rt":1822,"stimulus":"<p>How confident are you about your choice ?</p>","slider_start":50,"response":97,"trial_type":"html-slider-response","trial_index":106,"time_elapsed":204132,"internal_node_id":"0.0-10.0-2.0"},{"rt":null,"stimulus":"\n        <div id='jspsych-image' style='position: relative; width: min(80vw, 80vh); height: min(80vw, 80vh);'>\n                \n                <div style='position: absolute; top: 40%; left: 30%; bottom: 40%; right: 30%;'><h1 style='font-size: 60px; color: green;'>Correct!</h1></div>\n                \n                <div class='jspsych-image' id='jspsych-image-0' data-choice='0' style='top: 0;     left: 0;'><img style=\"width: 100%; height: 100%;\" src='../static/human_exp_images/task_color/00_2.png' class=''></img></div>\n                <div class='jspsych-image' id='jspsych-image-1' data-choice='1' style='top: 0;     right: 0;'><img style=\"width: 100%; height: 100%;\" src='../static/human_exp_images/task_color/00_1.png' class=''></img></div>\n                <div class='jspsych-image' id='jspsych-image-2' data-choice='2' style='bottom: 0;  left: 0;'><img style=\"width: 100%; height: 100%;\" src='../static/human_exp_images/task_color/00_0.png' class=''></img></div>\n                <div class='jspsych-image' id='jspsych-image-3' data-choice='3' style='bottom: 0;  right: 0;'><img style=\"width: 100%; height: 100%;\" src='../static/human_exp_images/task_color/00_3.png' class='correct-choice'></img></div>\n\n        </div>","response":null,"trial_type":"html-keyboard-response","trial_index":107,"time_elapsed":205638,"internal_node_id":"0.0-10.0-3.0"},{"rt":null,"trial_type":"image-click","trial_index":108,"time_elapsed":206410,"internal_node_id":"0.0-10.0-0.1"},{"rt":2370,"response":2,"all_choices":["../static/human_exp_images/task_color/01_1.png","../static/human_exp_images/task_color/01_2.png","../static/human_exp_images/task_color/01_3.png","../static/human_exp_images/task_color/01_0.png"],"task":"response","correct_response":2,"shuffled_array":[1,2,3,0],"catch_trial":false,"trial_type":"image-click","trial_index":109,"time_elapsed":208784,"internal_node_id":"0.0-10.0-1.1","mouse_tracking_data":[{"x":1011,"y":475,"t":0,"event":"mousemove"},{"x":977,"y":475,"t":11,"event":"mousemove"},{"x":960,"y":475,"t":28,"event":"mousemove"},{"x":957,"y":475,"t":44,"event":"mousemove"},{"x":955,"y":475,"t":62,"event":"mousemove"},{"x":955,"y":473,"t":115,"event":"mousemove"},{"x":955,"y":472,"t":180,"event":"mousemove"},{"x":955,"y":470,"t":197,"event":"mousemove"},{"x":955,"y":468,"t":212,"event":"mousemove"},{"x":955,"y":466,"t":229,"event":"mousemove"},{"x":955,"y":463,"t":246,"event":"mousemove"},{"x":955,"y":461,"t":261,"event":"mousemove"},{"x":955,"y":460,"t":279,"event":"mousemove"},{"x":957,"y":460,"t":341,"event":"mousemove"},{"x":958,"y":460,"t":354,"event":"mousemove"},{"x":960,"y":460,"t":360,"event":"mousemove"},{"x":962,"y":460,"t":371,"event":"mousemove"},{"x":964,"y":460,"t":380,"event":"mousemove"},{"x":965,"y":460,"t":387,"event":"mousemove"},{"x":967,"y":460,"t":396,"event":"mousemove"},{"x":969,"y":460,"t":397,"event":"mousemove"},{"x":972,"y":460,"t":414,"event":"mousemove"},{"x":976,"y":460,"t":431,"event":"mousemove"},{"x":982,"y":460,"t":447,"event":"mousemove"},{"x":988,"y":460,"t":464,"event":"mousemove"},{"x":993,"y":460,"t":480,"event":"mousemove"},{"x":998,"y":460,"t":498,"event":"mousemove"},{"x":1003,"y":460,"t":513,"event":"mousemove"},{"x":1005,"y":460,"t":531,"event":"mousemove"},{"x":1010,"y":460,"t":548,"event":"mousemove"},{"x":1015,"y":460,"t":564,"event":"mousemove"},{"x":1018,"y":460,"t":581,"event":"mousemove"},{"x":1022,"y":460,"t":598,"event":"mousemove"},{"x":1027,"y":460,"t":615,"event":"mousemove"},{"x":1030,"y":460,"t":631,"event":"mousemove"},{"x":1034,"y":460,"t":648,"event":"mousemove"},{"x":1037,"y":460,"t":664,"event":"mousemove"},{"x":1039,"y":460,"t":681,"event":"mousemove"},{"x":1042,"y":460,"t":697,"event":"mousemove"},{"x":1044,"y":460,"t":714,"event":"mousemove"},{"x":1046,"y":460,"t":741,"event":"mousemove"},{"x":1046,"y":461,"t":971,"event":"mousemove"},{"x":1046,"y":465,"t":979,"event":"mousemove"},{"x":1046,"y":466,"t":980,"event":"mousemove"},{"x":1046,"y":487,"t":996,"event":"mousemove"},{"x":989,"y":544,"t":1014,"event":"mousemove"},{"x":952,"y":584,"t":1030,"event":"mousemove"},{"x":918,"y":625,"t":1046,"event":"mousemove"},{"x":910,"y":648,"t":1063,"event":"mousemove"},{"x":910,"y":664,"t":1080,"event":"mousemove"},{"x":910,"y":714,"t":1096,"event":"mousemove"},{"x":910,"y":792,"t":1113,"event":"mousemove"},{"x":885,"y":871,"t":1123,"event":"mousemove"},{"x":727,"y":882,"t":1262,"event":"mousemove"},{"x":727,"y":847,"t":1280,"event":"mousemove"},{"x":727,"y":814,"t":1295,"event":"mousemove"},{"x":727,"y":786,"t":1312,"event":"mousemove"},{"x":727,"y":755,"t":1329,"event":"mousemove"},{"x":727,"y":745,"t":1346,"event":"mousemove"},{"x":727,"y":730,"t":1363,"event":"mousemove"},{"x":727,"y":725,"t":1379,"event":"mousemove"},{"x":727,"y":723,"t":1396,"event":"mousemove"},{"x":727,"y":721,"t":1431,"event":"mousemove"},{"x":727,"y":720,"t":1492,"event":"mousemove"},{"x":727,"y":718,"t":1514,"event":"mousemove"},{"x":728,"y":716,"t":1524,"event":"mousemove"},{"x":730,"y":715,"t":1535,"event":"mousemove"},{"x":732,"y":715,"t":1538,"event":"mousemove"},{"x":734,"y":713,"t":1540,"event":"mousemove"},{"x":737,"y":711,"t":1556,"event":"mousemove"},{"x":747,"y":701,"t":1573,"event":"mousemove"},{"x":761,"y":685,"t":1588,"event":"mousemove"},{"x":773,"y":668,"t":1605,"event":"mousemove"},{"x":784,"y":654,"t":1621,"event":"mousemove"},{"x":793,"y":642,"t":1639,"event":"mousemove"},{"x":794,"y":637,"t":1657,"event":"mousemove"},{"x":796,"y":637,"t":1683,"event":"mousemove"}],"mouse_tracking_targets":{},"correct":true},{"rt":838,"stimulus":"<p>How confident are you about your choice ?</p>","slider_start":50,"response":98,"trial_type":"html-slider-response","trial_index":110,"time_elapsed":209625,"internal_node_id":"0.0-10.0-2.1"},{"rt":null,"stimulus":"\n        <div id='jspsych-image' style='position: relative; width: min(80vw, 80vh); height: min(80vw, 80vh);'>\n                \n                <div style='position: absolute; top: 40%; left: 30%; bottom: 40%; right: 30%;'><h1 style='font-size: 60px; color: green;'>Correct!</h1></div>\n                \n                <div class='jspsych-image' id='jspsych-image-0' data-choice='0' style='top: 0;     left: 0;'><img style=\"width: 100%; height: 100%;\" src='../static/human_exp_images/task_color/01_1.png' class=''></img></div>\n                <div class='jspsych-image' id='jspsych-image-1' data-choice='1' style='top: 0;     right: 0;'><img style=\"width: 100%; height: 100%;\" src='../static/human_exp_images/task_color/01_2.png' class=''></img></div>\n                <div class='jspsych-image' id='jspsych-image-2' data-choice='2' style='bottom: 0;  left: 0;'><img style=\"width: 100%; height: 100%;\" src='../static/human_exp_images/task_color/01_3.png' class='correct-choice'></img></div>\n                <div class='jspsych-image' id='jspsych-image-3' data-choice='3' style='bottom: 0;  right: 0;'><img style=\"width: 100%; height: 100%;\" src='../static/human_exp_images/task_color/01_0.png' class=''></img></div>\n\n        </div>","response":null,"trial_type":"html-keyboard-response","trial_index":111,"time_elapsed":211128,"internal_node_id":"0.0-10.0-3.1"},{"rt":null,"trial_type":"image-click","trial_index":112,"time_elapsed":211789,"internal_node_id":"0.0-10.0-0.2"},{"rt":936,"response":3,"all_choices":["../static/human_exp_images/task_color/02_2.png","../static/human_exp_images/task_color/02_0.png","../static/human_exp_images/task_color/02_1.png","../static/human_exp_images/task_color/02_3.png"],"task":"response","correct_response":3,"shuffled_array":[2,0,1,3],"catch_trial":false,"trial_type":"image-click","trial_index":113,"time_elapsed":212729,"internal_node_id":"0.0-10.0-1.2","mouse_tracking_data":[{"x":996,"y":369,"t":1,"event":"mousemove"},{"x":995,"y":372,"t":14,"event":"mousemove"},{"x":993,"y":374,"t":30,"event":"mousemove"},{"x":991,"y":374,"t":61,"event":"mousemove"},{"x":988,"y":374,"t":70,"event":"mousemove"},{"x":986,"y":374,"t":81,"event":"mousemove"},{"x":984,"y":374,"t":96,"event":"mousemove"},{"x":984,"y":378,"t":161,"event":"mousemove"},{"x":984,"y":379,"t":164,"event":"mousemove"},{"x":984,"y":401,"t":180,"event":"mousemove"},{"x":984,"y":450,"t":197,"event":"mousemove"},{"x":984,"y":494,"t":213,"event":"mousemove"},{"x":984,"y":542,"t":231,"event":"mousemove"},{"x":984,"y":566,"t":247,"event":"mousemove"},{"x":984,"y":569,"t":263,"event":"mousemove"},{"x":984,"y":568,"t":385,"event":"mousemove"},{"x":984,"y":566,"t":390,"event":"mousemove"},{"x":984,"y":564,"t":508,"event":"mousemove"},{"x":984,"y":562,"t":535,"event":"mousemove"},{"x":986,"y":562,"t":544,"event":"mousemove"},{"x":988,"y":562,"t":554,"event":"mousemove"},{"x":990,"y":562,"t":556,"event":"mousemove"},{"x":991,"y":562,"t":567,"event":"mousemove"},{"x":993,"y":562,"t":572,"event":"mousemove"},{"x":995,"y":562,"t":590,"event":"mousemove"},{"x":998,"y":562,"t":598,"event":"mousemove"},{"x":1001,"y":562,"t":608,"event":"mousemove"},{"x":1003,"y":562,"t":612,"event":"mousemove"},{"x":1008,"y":562,"t":616,"event":"mousemove"},{"x":1010,"y":562,"t":618,"event":"mousemove"},{"x":1019,"y":562,"t":634,"event":"mousemove"},{"x":1036,"y":568,"t":651,"event":"mousemove"},{"x":1048,"y":579,"t":667,"event":"mousemove"},{"x":1060,"y":593,"t":684,"event":"mousemove"},{"x":1065,"y":607,"t":701,"event":"mousemove"},{"x":1068,"y":617,"t":717,"event":"mousemove"},{"x":1072,"y":626,"t":735,"event":"mousemove"},{"x":1073,"y":638,"t":750,"event":"mousemove"},{"x":1078,"y":648,"t":767,"event":"mousemove"},{"x":1082,"y":656,"t":783,"event":"mousemove"},{"x":1085,"y":663,"t":801,"event":"mousemove"},{"x":1089,"y":667,"t":817,"event":"mousemove"},{"x":1090,"y":668,"t":834,"event":"mousemove"},{"x":1092,"y":670,"t":850,"event":"mousemove"}],"mouse_tracking_targets":{},"correct":true},{"rt":1918,"stimulus":"<p>How confident are you about your choice ?</p>","slider_start":50,"response":100,"trial_type":"html-slider-response","trial_index":114,"time_elapsed":214649,"internal_node_id":"0.0-10.0-2.2"},{"rt":null,"stimulus":"\n        <div id='jspsych-image' style='position: relative; width: min(80vw, 80vh); height: min(80vw, 80vh);'>\n                \n                <div style='position: absolute; top: 40%; left: 30%; bottom: 40%; right: 30%;'><h1 style='font-size: 60px; color: green;'>Correct!</h1></div>\n                \n                <div class='jspsych-image' id='jspsych-image-0' data-choice='0' style='top: 0;     left: 0;'><img style=\"width: 100%; height: 100%;\" src='../static/human_exp_images/task_color/02_2.png' class=''></img></div>\n                <div class='jspsych-image' id='jspsych-image-1' data-choice='1' style='top: 0;     right: 0;'><img style=\"width: 100%; height: 100%;\" src='../static/human_exp_images/task_color/02_0.png' class=''></img></div>\n                <div class='jspsych-image' id='jspsych-image-2' data-choice='2' style='bottom: 0;  left: 0;'><img style=\"width: 100%; height: 100%;\" src='../static/human_exp_images/task_color/02_1.png' class=''></img></div>\n                <div class='jspsych-image' id='jspsych-image-3' data-choice='3' style='bottom: 0;  right: 0;'><img style=\"width: 100%; height: 100%;\" src='../static/human_exp_images/task_color/02_3.png' class='correct-choice'></img></div>\n\n        </div>","response":null,"trial_type":"html-keyboard-response","trial_index":115,"time_elapsed":216153,"internal_node_id":"0.0-10.0-3.2"},{"rt":null,"trial_type":"image-click","trial_index":116,"time_elapsed":216470,"internal_node_id":"0.0-10.0-0.3"},{"rt":1313,"response":0,"all_choices":["../static/human_exp_images/task_color/03_3.png","../static/human_exp_images/task_color/03_1.png","../static/human_exp_images/task_color/03_0.png","../static/human_exp_images/task_color/03_2.png"],"task":"response","correct_response":0,"shuffled_array":[3,1,0,2],"catch_trial":false,"trial_type":"image-click","trial_index":117,"time_elapsed":217785,"internal_node_id":"0.0-10.0-1.3","mouse_tracking_data":[{"x":1038,"y":470,"t":0,"event":"mousemove"},{"x":1028,"y":468,"t":16,"event":"mousemove"},{"x":1019,"y":466,"t":32,"event":"mousemove"},{"x":1010,"y":465,"t":49,"event":"mousemove"},{"x":1000,"y":461,"t":65,"event":"mousemove"},{"x":992,"y":458,"t":83,"event":"mousemove"},{"x":983,"y":455,"t":98,"event":"mousemove"},{"x":978,"y":452,"t":115,"event":"mousemove"},{"x":971,"y":450,"t":131,"event":"mousemove"},{"x":963,"y":447,"t":149,"event":"mousemove"},{"x":956,"y":445,"t":166,"event":"mousemove"},{"x":951,"y":443,"t":182,"event":"mousemove"},{"x":947,"y":442,"t":199,"event":"mousemove"},{"x":944,"y":442,"t":215,"event":"mousemove"},{"x":942,"y":442,"t":233,"event":"mousemove"},{"x":940,"y":442,"t":249,"event":"mousemove"},{"x":939,"y":442,"t":265,"event":"mousemove"},{"x":940,"y":442,"t":410,"event":"mousemove"},{"x":942,"y":442,"t":412,"event":"mousemove"},{"x":949,"y":442,"t":428,"event":"mousemove"},{"x":953,"y":442,"t":445,"event":"mousemove"},{"x":956,"y":442,"t":461,"event":"mousemove"},{"x":960,"y":442,"t":478,"event":"mousemove"},{"x":961,"y":442,"t":495,"event":"mousemove"},{"x":963,"y":443,"t":512,"event":"mousemove"},{"x":965,"y":445,"t":528,"event":"mousemove"},{"x":967,"y":445,"t":545,"event":"mousemove"},{"x":968,"y":445,"t":563,"event":"mousemove"},{"x":968,"y":447,"t":646,"event":"mousemove"},{"x":967,"y":447,"t":705,"event":"mousemove"},{"x":961,"y":447,"t":708,"event":"mousemove"},{"x":953,"y":447,"t":723,"event":"mousemove"},{"x":939,"y":447,"t":740,"event":"mousemove"},{"x":920,"y":435,"t":755,"event":"mousemove"},{"x":890,"y":410,"t":773,"event":"mousemove"},{"x":875,"y":394,"t":789,"event":"mousemove"},{"x":860,"y":380,"t":806,"event":"mousemove"},{"x":848,"y":368,"t":823,"event":"mousemove"},{"x":841,"y":363,"t":839,"event":"mousemove"},{"x":838,"y":361,"t":856,"event":"mousemove"},{"x":836,"y":361,"t":873,"event":"mousemove"},{"x":836,"y":360,"t":965,"event":"mousemove"},{"x":835,"y":360,"t":968,"event":"mousemove"},{"x":835,"y":358,"t":974,"event":"mousemove"},{"x":833,"y":358,"t":979,"event":"mousemove"},{"x":831,"y":356,"t":983,"event":"mousemove"},{"x":831,"y":354,"t":984,"event":"mousemove"},{"x":828,"y":353,"t":1000,"event":"mousemove"},{"x":821,"y":344,"t":1017,"event":"mousemove"},{"x":814,"y":336,"t":1033,"event":"mousemove"},{"x":807,"y":325,"t":1050,"event":"mousemove"},{"x":802,"y":317,"t":1067,"event":"mousemove"},{"x":797,"y":306,"t":1083,"event":"mousemove"},{"x":795,"y":303,"t":1099,"event":"mousemove"},{"x":792,"y":296,"t":1116,"event":"mousemove"},{"x":790,"y":289,"t":1134,"event":"mousemove"},{"x":788,"y":286,"t":1150,"event":"mousemove"},{"x":787,"y":284,"t":1167,"event":"mousemove"},{"x":787,"y":283,"t":1184,"event":"mousemove"}],"mouse_tracking_targets":{},"correct":true},{"rt":999,"stimulus":"<p>How confident are you about your choice ?</p>","slider_start":50,"response":97,"trial_type":"html-slider-response","trial_index":118,"time_elapsed":218786,"internal_node_id":"0.0-10.0-2.3"},{"rt":null,"stimulus":"\n        <div id='jspsych-image' style='position: relative; width: min(80vw, 80vh); height: min(80vw, 80vh);'>\n                \n                <div style='position: absolute; top: 40%; left: 30%; bottom: 40%; right: 30%;'><h1 style='font-size: 60px; color: green;'>Correct!</h1></div>\n                \n                <div class='jspsych-image' id='jspsych-image-0' data-choice='0' style='top: 0;     left: 0;'><img style=\"width: 100%; height: 100%;\" src='../static/human_exp_images/task_color/03_3.png' class='correct-choice'></img></div>\n                <div class='jspsych-image' id='jspsych-image-1' data-choice='1' style='top: 0;     right: 0;'><img style=\"width: 100%; height: 100%;\" src='../static/human_exp_images/task_color/03_1.png' class=''></img></div>\n                <div class='jspsych-image' id='jspsych-image-2' data-choice='2' style='bottom: 0;  left: 0;'><img style=\"width: 100%; height: 100%;\" src='../static/human_exp_images/task_color/03_0.png' class=''></img></div>\n                <div class='jspsych-image' id='jspsych-image-3' data-choice='3' style='bottom: 0;  right: 0;'><img style=\"width: 100%; height: 100%;\" src='../static/human_exp_images/task_color/03_2.png' class=''></img></div>\n\n        </div>","response":null,"trial_type":"html-keyboard-response","trial_index":119,"time_elapsed":220289,"internal_node_id":"0.0-10.0-3.3"},{"rt":null,"trial_type":"image-click","trial_index":120,"time_elapsed":220713,"internal_node_id":"0.0-10.0-0.4"},{"rt":1856,"response":2,"all_choices":["../static/human_exp_images/task_color/04_2.png","../static/human_exp_images/task_color/04_1.png","../static/human_exp_images/task_color/04_3.png","../static/human_exp_images/task_color/04_0.png"],"task":"response","correct_response":2,"shuffled_array":[2,1,3,0],"catch_trial":false,"trial_type":"image-click","trial_index":121,"time_elapsed":222571,"internal_node_id":"0.0-10.0-1.4","mouse_tracking_data":[{"x":1040,"y":466,"t":1,"event":"mousemove"},{"x":983,"y":459,"t":13,"event":"mousemove"},{"x":934,"y":449,"t":30,"event":"mousemove"},{"x":914,"y":444,"t":46,"event":"mousemove"},{"x":902,"y":443,"t":63,"event":"mousemove"},{"x":899,"y":443,"t":80,"event":"mousemove"},{"x":897,"y":443,"t":96,"event":"mousemove"},{"x":897,"y":441,"t":135,"event":"mousemove"},{"x":899,"y":441,"t":307,"event":"mousemove"},{"x":901,"y":441,"t":314,"event":"mousemove"},{"x":906,"y":441,"t":330,"event":"mousemove"},{"x":914,"y":441,"t":346,"event":"mousemove"},{"x":924,"y":441,"t":364,"event":"mousemove"},{"x":933,"y":441,"t":380,"event":"mousemove"},{"x":940,"y":441,"t":398,"event":"mousemove"},{"x":943,"y":441,"t":413,"event":"mousemove"},{"x":952,"y":441,"t":431,"event":"mousemove"},{"x":959,"y":441,"t":446,"event":"mousemove"},{"x":964,"y":441,"t":464,"event":"mousemove"},{"x":967,"y":441,"t":480,"event":"mousemove"},{"x":971,"y":441,"t":497,"event":"mousemove"},{"x":972,"y":441,"t":514,"event":"mousemove"},{"x":976,"y":441,"t":531,"event":"mousemove"},{"x":977,"y":441,"t":548,"event":"mousemove"},{"x":981,"y":441,"t":563,"event":"mousemove"},{"x":988,"y":441,"t":581,"event":"mousemove"},{"x":993,"y":441,"t":597,"event":"mousemove"},{"x":994,"y":441,"t":614,"event":"mousemove"},{"x":998,"y":441,"t":630,"event":"mousemove"},{"x":1000,"y":441,"t":651,"event":"mousemove"},{"x":998,"y":441,"t":1585,"event":"mousemove"},{"x":991,"y":441,"t":1590,"event":"mousemove"},{"x":987,"y":443,"t":1596,"event":"mousemove"},{"x":980,"y":445,"t":1599,"event":"mousemove"},{"x":978,"y":445,"t":1601,"event":"mousemove"},{"x":959,"y":450,"t":1616,"event":"mousemove"},{"x":933,"y":464,"t":1634,"event":"mousemove"},{"x":911,"y":477,"t":1650,"event":"mousemove"},{"x":876,"y":505,"t":1667,"event":"mousemove"},{"x":847,"y":534,"t":1684,"event":"mousemove"},{"x":816,"y":565,"t":1701,"event":"mousemove"},{"x":791,"y":594,"t":1718,"event":"mousemove"},{"x":776,"y":612,"t":1734,"event":"mousemove"},{"x":766,"y":623,"t":1751,"event":"mousemove"},{"x":761,"y":627,"t":1768,"event":"mousemove"}],"mouse_tracking_targets":{},"correct":true},{"rt":741,"stimulus":"<p>How confident are you about your choice ?</p>","slider_start":50,"response":100,"trial_type":"html-slider-response","trial_index":122,"time_elapsed":223314,"internal_node_id":"0.0-10.0-2.4"},{"rt":null,"stimulus":"\n        <div id='jspsych-image' style='position: relative; width: min(80vw, 80vh); height: min(80vw, 80vh);'>\n                \n                <div style='position: absolute; top: 40%; left: 30%; bottom: 40%; right: 30%;'><h1 style='font-size: 60px; color: green;'>Correct!</h1></div>\n                \n                <div class='jspsych-image' id='jspsych-image-0' data-choice='0' style='top: 0;     left: 0;'><img style=\"width: 100%; height: 100%;\" src='../static/human_exp_images/task_color/04_2.png' class=''></img></div>\n                <div class='jspsych-image' id='jspsych-image-1' data-choice='1' style='top: 0;     right: 0;'><img style=\"width: 100%; height: 100%;\" src='../static/human_exp_images/task_color/04_1.png' class=''></img></div>\n                <div class='jspsych-image' id='jspsych-image-2' data-choice='2' style='bottom: 0;  left: 0;'><img style=\"width: 100%; height: 100%;\" src='../static/human_exp_images/task_color/04_3.png' class='correct-choice'></img></div>\n                <div class='jspsych-image' id='jspsych-image-3' data-choice='3' style='bottom: 0;  right: 0;'><img style=\"width: 100%; height: 100%;\" src='../static/human_exp_images/task_color/04_0.png' class=''></img></div>\n\n        </div>","response":null,"trial_type":"html-keyboard-response","trial_index":123,"time_elapsed":224817,"internal_node_id":"0.0-10.0-3.4"},{"rt":null,"trial_type":"image-click","trial_index":124,"time_elapsed":225386,"internal_node_id":"0.0-10.0-0.5"},{"rt":1086,"response":1,"all_choices":["../static/human_exp_images/task_color/05_2.png","../static/human_exp_images/task_color/05_3.png","../static/human_exp_images/task_color/05_1.png","../static/human_exp_images/task_color/05_0.png"],"task":"response","correct_response":1,"shuffled_array":[2,3,1,0],"catch_trial":false,"trial_type":"image-click","trial_index":125,"time_elapsed":226472,"internal_node_id":"0.0-10.0-1.5","mouse_tracking_data":[{"x":1047,"y":475,"t":1,"event":"mousemove"},{"x":1026,"y":475,"t":16,"event":"mousemove"},{"x":989,"y":475,"t":32,"event":"mousemove"},{"x":948,"y":475,"t":50,"event":"mousemove"},{"x":924,"y":475,"t":66,"event":"mousemove"},{"x":914,"y":475,"t":83,"event":"mousemove"},{"x":910,"y":475,"t":100,"event":"mousemove"},{"x":914,"y":475,"t":192,"event":"mousemove"},{"x":916,"y":475,"t":200,"event":"mousemove"},{"x":937,"y":475,"t":216,"event":"mousemove"},{"x":964,"y":475,"t":233,"event":"mousemove"},{"x":997,"y":475,"t":250,"event":"mousemove"},{"x":1021,"y":475,"t":266,"event":"mousemove"},{"x":1046,"y":475,"t":283,"event":"mousemove"},{"x":1052,"y":475,"t":299,"event":"mousemove"},{"x":1064,"y":475,"t":317,"event":"mousemove"},{"x":1069,"y":475,"t":334,"event":"mousemove"},{"x":1071,"y":475,"t":356,"event":"mousemove"},{"x":1073,"y":475,"t":585,"event":"mousemove"},{"x":1074,"y":475,"t":593,"event":"mousemove"},{"x":1078,"y":470,"t":601,"event":"mousemove"},{"x":1081,"y":466,"t":604,"event":"mousemove"},{"x":1085,"y":460,"t":610,"event":"mousemove"},{"x":1086,"y":454,"t":613,"event":"mousemove"},{"x":1092,"y":444,"t":618,"event":"mousemove"},{"x":1095,"y":440,"t":619,"event":"mousemove"},{"x":1103,"y":422,"t":636,"event":"mousemove"},{"x":1122,"y":391,"t":653,"event":"mousemove"},{"x":1143,"y":359,"t":670,"event":"mousemove"},{"x":1162,"y":327,"t":686,"event":"mousemove"},{"x":1172,"y":307,"t":702,"event":"mousemove"},{"x":1182,"y":293,"t":719,"event":"mousemove"},{"x":1185,"y":291,"t":736,"event":"mousemove"},{"x":1185,"y":290,"t":753,"event":"mousemove"}],"mouse_tracking_targets":{},"correct":true},{"rt":1233,"stimulus":"<p>How confident are you about your choice ?</p>","slider_start":50,"response":100,"trial_type":"html-slider-response","trial_index":126,"time_elapsed":227708,"internal_node_id":"0.0-10.0-2.5"},{"rt":null,"stimulus":"\n        <div id='jspsych-image' style='position: relative; width: min(80vw, 80vh); height: min(80vw, 80vh);'>\n                \n                <div style='position: absolute; top: 40%; left: 30%; bottom: 40%; right: 30%;'><h1 style='font-size: 60px; color: green;'>Correct!</h1></div>\n                \n                <div class='jspsych-image' id='jspsych-image-0' data-choice='0' style='top: 0;     left: 0;'><img style=\"width: 100%; height: 100%;\" src='../static/human_exp_images/task_color/05_2.png' class=''></img></div>\n                <div class='jspsych-image' id='jspsych-image-1' data-choice='1' style='top: 0;     right: 0;'><img style=\"width: 100%; height: 100%;\" src='../static/human_exp_images/task_color/05_3.png' class='correct-choice'></img></div>\n                <div class='jspsych-image' id='jspsych-image-2' data-choice='2' style='bottom: 0;  left: 0;'><img style=\"width: 100%; height: 100%;\" src='../static/human_exp_images/task_color/05_1.png' class=''></img></div>\n                <div class='jspsych-image' id='jspsych-image-3' data-choice='3' style='bottom: 0;  right: 0;'><img style=\"width: 100%; height: 100%;\" src='../static/human_exp_images/task_color/05_0.png' class=''></img></div>\n\n        </div>","response":null,"trial_type":"html-keyboard-response","trial_index":127,"time_elapsed":229210,"internal_node_id":"0.0-10.0-3.5"},{"rt":null,"trial_type":"image-click","trial_index":128,"time_elapsed":229679,"internal_node_id":"0.0-10.0-0.6"},{"rt":1040,"response":1,"all_choices":["../static/human_exp_images/task_color/05_2.png","../static/human_exp_images/task_color/05_3.png","../static/human_exp_images/task_color/05_1.png","../static/human_exp_images/task_color/05_0.png"],"task":"response","correct_response":1,"shuffled_array":[2,3,1,0],"catch_trial":true,"trial_type":"image-click","trial_index":129,"time_elapsed":230721,"internal_node_id":"0.0-10.0-1.6","mouse_tracking_data":[{"x":1027,"y":478,"t":0,"event":"mousemove"},{"x":974,"y":478,"t":14,"event":"mousemove"},{"x":949,"y":478,"t":31,"event":"mousemove"},{"x":942,"y":478,"t":47,"event":"mousemove"},{"x":938,"y":478,"t":63,"event":"mousemove"},{"x":945,"y":478,"t":128,"event":"mousemove"},{"x":949,"y":478,"t":131,"event":"mousemove"},{"x":976,"y":480,"t":147,"event":"mousemove"},{"x":1008,"y":482,"t":164,"event":"mousemove"},{"x":1039,"y":484,"t":181,"event":"mousemove"},{"x":1082,"y":487,"t":197,"event":"mousemove"},{"x":1120,"y":487,"t":213,"event":"mousemove"},{"x":1132,"y":487,"t":230,"event":"mousemove"},{"x":1144,"y":487,"t":246,"event":"mousemove"},{"x":1150,"y":487,"t":264,"event":"mousemove"},{"x":1153,"y":487,"t":281,"event":"mousemove"},{"x":1153,"y":484,"t":621,"event":"mousemove"},{"x":1153,"y":480,"t":623,"event":"mousemove"},{"x":1153,"y":454,"t":639,"event":"mousemove"},{"x":1153,"y":399,"t":657,"event":"mousemove"},{"x":1153,"y":363,"t":673,"event":"mousemove"},{"x":1164,"y":317,"t":691,"event":"mousemove"},{"x":1175,"y":283,"t":707,"event":"mousemove"},{"x":1179,"y":271,"t":723,"event":"mousemove"},{"x":1179,"y":263,"t":739,"event":"mousemove"}],"mouse_tracking_targets":{},"correct":true},{"rt":1248,"stimulus":"<p>How confident are you about your choice ?</p>","slider_start":50,"response":100,"trial_type":"html-slider-response","trial_index":130,"time_elapsed":231971,"internal_node_id":"0.0-10.0-2.6"},{"rt":null,"stimulus":"\n        <div id='jspsych-image' style='position: relative; width: min(80vw, 80vh); height: min(80vw, 80vh);'>\n                \n                <div style='position: absolute; top: 40%; left: 30%; bottom: 40%; right: 30%;'><h1 style='font-size: 60px; color: green;'>Correct!</h1></div>\n                \n                <div class='jspsych-image' id='jspsych-image-0' data-choice='0' style='top: 0;     left: 0;'><img style=\"width: 100%; height: 100%;\" src='../static/human_exp_images/task_color/05_2.png' class=''></img></div>\n                <div class='jspsych-image' id='jspsych-image-1' data-choice='1' style='top: 0;     right: 0;'><img style=\"width: 100%; height: 100%;\" src='../static/human_exp_images/task_color/05_3.png' class='correct-choice'></img></div>\n                <div class='jspsych-image' id='jspsych-image-2' data-choice='2' style='bottom: 0;  left: 0;'><img style=\"width: 100%; height: 100%;\" src='../static/human_exp_images/task_color/05_1.png' class=''></img></div>\n                <div class='jspsych-image' id='jspsych-image-3' data-choice='3' style='bottom: 0;  right: 0;'><img style=\"width: 100%; height: 100%;\" src='../static/human_exp_images/task_color/05_0.png' class=''></img></div>\n\n        </div>","response":null,"trial_type":"html-keyboard-response","trial_index":131,"time_elapsed":233474,"internal_node_id":"0.0-10.0-3.6"},{"rt":null,"trial_type":"image-click","trial_index":132,"time_elapsed":234063,"internal_node_id":"0.0-10.0-0.7"},{"rt":1095,"response":2,"all_choices":["../static/human_exp_images/task_color/06_1.png","../static/human_exp_images/task_color/06_2.png","../static/human_exp_images/task_color/06_3.png","../static/human_exp_images/task_color/06_0.png"],"task":"response","correct_response":2,"shuffled_array":[1,2,3,0],"catch_trial":false,"trial_type":"image-click","trial_index":133,"time_elapsed":235162,"internal_node_id":"0.0-10.0-1.7","mouse_tracking_data":[{"x":1042,"y":456,"t":1,"event":"mousemove"},{"x":980,"y":451,"t":14,"event":"mousemove"},{"x":936,"y":448,"t":31,"event":"mousemove"},{"x":919,"y":446,"t":47,"event":"mousemove"},{"x":917,"y":446,"t":65,"event":"mousemove"},{"x":917,"y":444,"t":81,"event":"mousemove"},{"x":917,"y":442,"t":101,"event":"mousemove"},{"x":917,"y":441,"t":114,"event":"mousemove"},{"x":917,"y":437,"t":131,"event":"mousemove"},{"x":952,"y":435,"t":147,"event":"mousemove"},{"x":1045,"y":435,"t":165,"event":"mousemove"},{"x":1096,"y":435,"t":181,"event":"mousemove"},{"x":1169,"y":435,"t":197,"event":"mousemove"},{"x":1221,"y":435,"t":214,"event":"mousemove"},{"x":1238,"y":440,"t":231,"event":"mousemove"},{"x":1241,"y":440,"t":248,"event":"mousemove"},{"x":1240,"y":440,"t":769,"event":"mousemove"},{"x":1229,"y":440,"t":776,"event":"mousemove"},{"x":1224,"y":440,"t":779,"event":"mousemove"},{"x":1172,"y":440,"t":795,"event":"mousemove"},{"x":1056,"y":457,"t":812,"event":"mousemove"},{"x":984,"y":476,"t":828,"event":"mousemove"},{"x":866,"y":525,"t":845,"event":"mousemove"},{"x":760,"y":595,"t":861,"event":"mousemove"},{"x":693,"y":665,"t":879,"event":"mousemove"},{"x":650,"y":720,"t":895,"event":"mousemove"},{"x":634,"y":741,"t":912,"event":"mousemove"},{"x":631,"y":748,"t":928,"event":"mousemove"},{"x":625,"y":751,"t":945,"event":"mousemove"},{"x":625,"y":744,"t":1048,"event":"mousemove"},{"x":634,"y":732,"t":1095,"event":"mousemove"},{"x":673,"y":691,"t":1095,"event":"mousemove"}],"mouse_tracking_targets":{},"correct":true},{"rt":2303,"stimulus":"<p>How confident are you about your choice ?</p>","slider_start":50,"response":100,"trial_type":"html-slider-response","trial_index":134,"time_elapsed":237466,"internal_node_id":"0.0-10.0-2.7"},{"rt":null,"stimulus":"\n        <div id='jspsych-image' style='position: relative; width: min(80vw, 80vh); height: min(80vw, 80vh);'>\n                \n                <div style='position: absolute; top: 40%; left: 30%; bottom: 40%; right: 30%;'><h1 style='font-size: 60px; color: green;'>Correct!</h1></div>\n                \n                <div class='jspsych-image' id='jspsych-image-0' data-choice='0' style='top: 0;     left: 0;'><img style=\"width: 100%; height: 100%;\" src='../static/human_exp_images/task_color/06_1.png' class=''></img></div>\n                <div class='jspsych-image' id='jspsych-image-1' data-choice='1' style='top: 0;     right: 0;'><img style=\"width: 100%; height: 100%;\" src='../static/human_exp_images/task_color/06_2.png' class=''></img></div>\n                <div class='jspsych-image' id='jspsych-image-2' data-choice='2' style='bottom: 0;  left: 0;'><img style=\"width: 100%; height: 100%;\" src='../static/human_exp_images/task_color/06_3.png' class='correct-choice'></img></div>\n                <div class='jspsych-image' id='jspsych-image-3' data-choice='3' style='bottom: 0;  right: 0;'><img style=\"width: 100%; height: 100%;\" src='../static/human_exp_images/task_color/06_0.png' class=''></img></div>\n\n        </div>","response":null,"trial_type":"html-keyboard-response","trial_index":135,"time_elapsed":238971,"internal_node_id":"0.0-10.0-3.7"},{"rt":null,"trial_type":"image-click","trial_index":136,"time_elapsed":239445,"internal_node_id":"0.0-10.0-0.8"},{"rt":1796,"response":0,"all_choices":["../static/human_exp_images/task_color/07_3.png","../static/human_exp_images/task_color/07_1.png","../static/human_exp_images/task_color/07_0.png","../static/human_exp_images/task_color/07_2.png"],"task":"response","correct_response":0,"shuffled_array":[3,1,0,2],"catch_trial":false,"trial_type":"image-click","trial_index":137,"time_elapsed":241244,"internal_node_id":"0.0-10.0-1.8","mouse_tracking_data":[{"x":1035,"y":461,"t":1,"event":"mousemove"},{"x":1020,"y":456,"t":12,"event":"mousemove"},{"x":1008,"y":450,"t":30,"event":"mousemove"},{"x":1004,"y":450,"t":47,"event":"mousemove"},{"x":1011,"y":450,"t":102,"event":"mousemove"},{"x":1034,"y":450,"t":113,"event":"mousemove"},{"x":1080,"y":467,"t":130,"event":"mousemove"},{"x":1131,"y":484,"t":147,"event":"mousemove"},{"x":1157,"y":490,"t":163,"event":"mousemove"},{"x":1184,"y":490,"t":180,"event":"mousemove"},{"x":1191,"y":490,"t":196,"event":"mousemove"},{"x":1186,"y":490,"t":545,"event":"mousemove"},{"x":1185,"y":490,"t":547,"event":"mousemove"},{"x":1171,"y":490,"t":564,"event":"mousemove"},{"x":1159,"y":490,"t":581,"event":"mousemove"},{"x":1156,"y":490,"t":597,"event":"mousemove"},{"x":1154,"y":490,"t":614,"event":"mousemove"},{"x":1152,"y":490,"t":654,"event":"mousemove"},{"x":1151,"y":490,"t":1240,"event":"mousemove"},{"x":1149,"y":490,"t":1251,"event":"mousemove"},{"x":1146,"y":490,"t":1257,"event":"mousemove"},{"x":1139,"y":490,"t":1265,"event":"mousemove"},{"x":1137,"y":490,"t":1268,"event":"mousemove"},{"x":1125,"y":490,"t":1284,"event":"mousemove"},{"x":1103,"y":490,"t":1301,"event":"mousemove"},{"x":1084,"y":487,"t":1317,"event":"mousemove"},{"x":1066,"y":481,"t":1334,"event":"mousemove"},{"x":1053,"y":478,"t":1350,"event":"mousemove"},{"x":1040,"y":473,"t":1367,"event":"mousemove"},{"x":1028,"y":469,"t":1383,"event":"mousemove"},{"x":1016,"y":464,"t":1400,"event":"mousemove"},{"x":1000,"y":457,"t":1417,"event":"mousemove"},{"x":988,"y":448,"t":1433,"event":"mousemove"},{"x":978,"y":443,"t":1450,"event":"mousemove"},{"x":971,"y":438,"t":1467,"event":"mousemove"},{"x":957,"y":430,"t":1484,"event":"mousemove"},{"x":947,"y":421,"t":1500,"event":"mousemove"},{"x":929,"y":405,"t":1517,"event":"mousemove"},{"x":915,"y":393,"t":1533,"event":"mousemove"},{"x":892,"y":372,"t":1550,"event":"mousemove"},{"x":883,"y":363,"t":1567,"event":"mousemove"},{"x":867,"y":346,"t":1583,"event":"mousemove"},{"x":847,"y":325,"t":1601,"event":"mousemove"},{"x":821,"y":300,"t":1617,"event":"mousemove"},{"x":752,"y":245,"t":1634,"event":"mousemove"},{"x":682,"y":206,"t":1651,"event":"mousemove"},{"x":642,"y":181,"t":1667,"event":"mousemove"},{"x":626,"y":170,"t":1683,"event":"mousemove"},{"x":613,"y":162,"t":1700,"event":"mousemove"},{"x":611,"y":158,"t":1718,"event":"mousemove"},{"x":610,"y":158,"t":1735,"event":"mousemove"},{"x":610,"y":156,"t":1750,"event":"mousemove"}],"mouse_tracking_targets":{},"correct":true},{"rt":1359,"stimulus":"<p>How confident are you about your choice ?</p>","slider_start":50,"response":99,"trial_type":"html-slider-response","trial_index":138,"time_elapsed":242606,"internal_node_id":"0.0-10.0-2.8"},{"rt":null,"stimulus":"\n        <div id='jspsych-image' style='position: relative; width: min(80vw, 80vh); height: min(80vw, 80vh);'>\n                \n                <div style='position: absolute; top: 40%; left: 30%; bottom: 40%; right: 30%;'><h1 style='font-size: 60px; color: green;'>Correct!</h1></div>\n                \n                <div class='jspsych-image' id='jspsych-image-0' data-choice='0' style='top: 0;     left: 0;'><img style=\"width: 100%; height: 100%;\" src='../static/human_exp_images/task_color/07_3.png' class='correct-choice'></img></div>\n                <div class='jspsych-image' id='jspsych-image-1' data-choice='1' style='top: 0;     right: 0;'><img style=\"width: 100%; height: 100%;\" src='../static/human_exp_images/task_color/07_1.png' class=''></img></div>\n                <div class='jspsych-image' id='jspsych-image-2' data-choice='2' style='bottom: 0;  left: 0;'><img style=\"width: 100%; height: 100%;\" src='../static/human_exp_images/task_color/07_0.png' class=''></img></div>\n                <div class='jspsych-image' id='jspsych-image-3' data-choice='3' style='bottom: 0;  right: 0;'><img style=\"width: 100%; height: 100%;\" src='../static/human_exp_images/task_color/07_2.png' class=''></img></div>\n\n        </div>","response":null,"trial_type":"html-keyboard-response","trial_index":139,"time_elapsed":244109,"internal_node_id":"0.0-10.0-3.8"},{"rt":null,"trial_type":"image-click","trial_index":140,"time_elapsed":244674,"internal_node_id":"0.0-10.0-0.9"},{"rt":1023,"response":1,"all_choices":["../static/human_exp_images/task_color/08_0.png","../static/human_exp_images/task_color/08_3.png","../static/human_exp_images/task_color/08_2.png","../static/human_exp_images/task_color/08_1.png"],"task":"response","correct_response":1,"shuffled_array":[0,3,2,1],"catch_trial":false,"trial_type":"image-click","trial_index":141,"time_elapsed":245700,"internal_node_id":"0.0-10.0-1.9","mouse_tracking_data":[{"x":1032,"y":481,"t":1,"event":"mousemove"},{"x":1017,"y":481,"t":14,"event":"mousemove"},{"x":1010,"y":481,"t":31,"event":"mousemove"},{"x":1007,"y":481,"t":48,"event":"mousemove"},{"x":1010,"y":481,"t":118,"event":"mousemove"},{"x":1023,"y":481,"t":131,"event":"mousemove"},{"x":1031,"y":481,"t":147,"event":"mousemove"},{"x":1033,"y":481,"t":164,"event":"mousemove"},{"x":1035,"y":481,"t":189,"event":"mousemove"},{"x":1036,"y":481,"t":198,"event":"mousemove"},{"x":1045,"y":481,"t":214,"event":"mousemove"},{"x":1052,"y":481,"t":231,"event":"mousemove"},{"x":1062,"y":481,"t":248,"event":"mousemove"},{"x":1067,"y":481,"t":265,"event":"mousemove"},{"x":1074,"y":481,"t":281,"event":"mousemove"},{"x":1079,"y":481,"t":297,"event":"mousemove"},{"x":1081,"y":481,"t":319,"event":"mousemove"},{"x":1082,"y":481,"t":671,"event":"mousemove"},{"x":1084,"y":481,"t":678,"event":"mousemove"},{"x":1086,"y":476,"t":686,"event":"mousemove"},{"x":1088,"y":475,"t":690,"event":"mousemove"},{"x":1089,"y":469,"t":694,"event":"mousemove"},{"x":1091,"y":468,"t":696,"event":"mousemove"},{"x":1096,"y":461,"t":713,"event":"mousemove"},{"x":1105,"y":447,"t":730,"event":"mousemove"},{"x":1115,"y":432,"t":745,"event":"mousemove"},{"x":1127,"y":414,"t":762,"event":"mousemove"},{"x":1138,"y":400,"t":779,"event":"mousemove"},{"x":1153,"y":383,"t":796,"event":"mousemove"},{"x":1158,"y":372,"t":813,"event":"mousemove"},{"x":1171,"y":358,"t":829,"event":"mousemove"},{"x":1181,"y":346,"t":847,"event":"mousemove"},{"x":1194,"y":330,"t":862,"event":"mousemove"},{"x":1208,"y":314,"t":880,"event":"mousemove"},{"x":1213,"y":309,"t":895,"event":"mousemove"},{"x":1217,"y":304,"t":912,"event":"mousemove"}],"mouse_tracking_targets":{},"correct":true},{"rt":1663,"stimulus":"<p>How confident are you about your choice ?</p>","slider_start":50,"response":100,"trial_type":"html-slider-response","trial_index":142,"time_elapsed":247365,"internal_node_id":"0.0-10.0-2.9"},{"rt":null,"stimulus":"\n        <div id='jspsych-image' style='position: relative; width: min(80vw, 80vh); height: min(80vw, 80vh);'>\n                \n                <div style='position: absolute; top: 40%; left: 30%; bottom: 40%; right: 30%;'><h1 style='font-size: 60px; color: green;'>Correct!</h1></div>\n                \n                <div class='jspsych-image' id='jspsych-image-0' data-choice='0' style='top: 0;     left: 0;'><img style=\"width: 100%; height: 100%;\" src='../static/human_exp_images/task_color/08_0.png' class=''></img></div>\n                <div class='jspsych-image' id='jspsych-image-1' data-choice='1' style='top: 0;     right: 0;'><img style=\"width: 100%; height: 100%;\" src='../static/human_exp_images/task_color/08_3.png' class='correct-choice'></img></div>\n                <div class='jspsych-image' id='jspsych-image-2' data-choice='2' style='bottom: 0;  left: 0;'><img style=\"width: 100%; height: 100%;\" src='../static/human_exp_images/task_color/08_2.png' class=''></img></div>\n                <div class='jspsych-image' id='jspsych-image-3' data-choice='3' style='bottom: 0;  right: 0;'><img style=\"width: 100%; height: 100%;\" src='../static/human_exp_images/task_color/08_1.png' class=''></img></div>\n\n        </div>","response":null,"trial_type":"html-keyboard-response","trial_index":143,"time_elapsed":248868,"internal_node_id":"0.0-10.0-3.9"},{"rt":null,"trial_type":"image-click","trial_index":144,"time_elapsed":249237,"internal_node_id":"0.0-10.0-0.10"},{"rt":1040,"response":0,"all_choices":["../static/human_exp_images/task_color/09_3.png","../static/human_exp_images/task_color/09_2.png","../static/human_exp_images/task_color/09_1.png","../static/human_exp_images/task_color/09_0.png"],"task":"response","correct_response":0,"shuffled_array":[3,2,1,0],"catch_trial":false,"trial_type":"image-click","trial_index":145,"time_elapsed":250280,"internal_node_id":"0.0-10.0-1.10","mouse_tracking_data":[{"x":1023,"y":445,"t":0,"event":"mousemove"},{"x":985,"y":436,"t":15,"event":"mousemove"},{"x":963,"y":430,"t":31,"event":"mousemove"},{"x":931,"y":425,"t":49,"event":"mousemove"},{"x":915,"y":423,"t":66,"event":"mousemove"},{"x":909,"y":420,"t":81,"event":"mousemove"},{"x":908,"y":420,"t":99,"event":"mousemove"},{"x":909,"y":420,"t":309,"event":"mousemove"},{"x":911,"y":420,"t":326,"event":"mousemove"},{"x":913,"y":420,"t":352,"event":"mousemove"},{"x":915,"y":420,"t":400,"event":"mousemove"},{"x":916,"y":420,"t":419,"event":"mousemove"},{"x":916,"y":417,"t":755,"event":"mousemove"},{"x":916,"y":415,"t":755,"event":"mousemove"},{"x":916,"y":407,"t":771,"event":"mousemove"},{"x":911,"y":393,"t":788,"event":"mousemove"},{"x":895,"y":377,"t":805,"event":"mousemove"},{"x":882,"y":364,"t":821,"event":"mousemove"},{"x":875,"y":359,"t":838,"event":"mousemove"},{"x":857,"y":344,"t":855,"event":"mousemove"},{"x":831,"y":328,"t":872,"event":"mousemove"},{"x":807,"y":312,"t":888,"event":"mousemove"},{"x":784,"y":293,"t":904,"event":"mousemove"},{"x":773,"y":280,"t":922,"event":"mousemove"},{"x":767,"y":270,"t":939,"event":"mousemove"},{"x":767,"y":266,"t":954,"event":"mousemove"}],"mouse_tracking_targets":{},"correct":true},{"rt":746,"stimulus":"<p>How confident are you about your choice ?</p>","slider_start":50,"response":100,"trial_type":"html-slider-response","trial_index":146,"time_elapsed":251026,"internal_node_id":"0.0-10.0-2.10"},{"rt":null,"stimulus":"\n        <div id='jspsych-image' style='position: relative; width: min(80vw, 80vh); height: min(80vw, 80vh);'>\n                \n                <div style='position: absolute; top: 40%; left: 30%; bottom: 40%; right: 30%;'><h1 style='font-size: 60px; color: green;'>Correct!</h1></div>\n                \n                <div class='jspsych-image' id='jspsych-image-0' data-choice='0' style='top: 0;     left: 0;'><img style=\"width: 100%; height: 100%;\" src='../static/human_exp_images/task_color/09_3.png' class='correct-choice'></img></div>\n                <div class='jspsych-image' id='jspsych-image-1' data-choice='1' style='top: 0;     right: 0;'><img style=\"width: 100%; height: 100%;\" src='../static/human_exp_images/task_color/09_2.png' class=''></img></div>\n                <div class='jspsych-image' id='jspsych-image-2' data-choice='2' style='bottom: 0;  left: 0;'><img style=\"width: 100%; height: 100%;\" src='../static/human_exp_images/task_color/09_1.png' class=''></img></div>\n                <div class='jspsych-image' id='jspsych-image-3' data-choice='3' style='bottom: 0;  right: 0;'><img style=\"width: 100%; height: 100%;\" src='../static/human_exp_images/task_color/09_0.png' class=''></img></div>\n\n        </div>","response":null,"trial_type":"html-keyboard-response","trial_index":147,"time_elapsed":252528,"internal_node_id":"0.0-10.0-3.10"},{"rt":null,"trial_type":"image-click","trial_index":148,"time_elapsed":252987,"internal_node_id":"0.0-10.0-0.11"},{"rt":948,"response":2,"all_choices":["../static/human_exp_images/task_color/10_1.png","../static/human_exp_images/task_color/10_0.png","../static/human_exp_images/task_color/10_3.png","../static/human_exp_images/task_color/10_2.png"],"task":"response","correct_response":2,"shuffled_array":[1,0,3,2],"catch_trial":false,"trial_type":"image-click","trial_index":149,"time_elapsed":253935,"internal_node_id":"0.0-10.0-1.11","mouse_tracking_data":[{"x":1045,"y":468,"t":0,"event":"mousemove"},{"x":1036,"y":467,"t":16,"event":"mousemove"},{"x":1024,"y":465,"t":32,"event":"mousemove"},{"x":1021,"y":463,"t":50,"event":"mousemove"},{"x":1016,"y":462,"t":67,"event":"mousemove"},{"x":1014,"y":460,"t":83,"event":"mousemove"},{"x":1014,"y":458,"t":101,"event":"mousemove"},{"x":1016,"y":458,"t":403,"event":"mousemove"},{"x":1016,"y":456,"t":575,"event":"mousemove"},{"x":1016,"y":455,"t":591,"event":"mousemove"},{"x":1014,"y":455,"t":645,"event":"mousemove"},{"x":1012,"y":455,"t":647,"event":"mousemove"},{"x":1004,"y":455,"t":663,"event":"mousemove"},{"x":983,"y":457,"t":680,"event":"mousemove"},{"x":946,"y":519,"t":696,"event":"mousemove"},{"x":908,"y":593,"t":714,"event":"mousemove"},{"x":872,"y":653,"t":729,"event":"mousemove"},{"x":845,"y":689,"t":747,"event":"mousemove"},{"x":830,"y":711,"t":764,"event":"mousemove"},{"x":805,"y":734,"t":779,"event":"mousemove"},{"x":799,"y":738,"t":797,"event":"mousemove"},{"x":796,"y":739,"t":813,"event":"mousemove"}],"mouse_tracking_targets":{},"correct":true},{"rt":1018,"stimulus":"<p>How confident are you about your choice ?</p>","slider_start":50,"response":100,"trial_type":"html-slider-response","trial_index":150,"time_elapsed":254955,"internal_node_id":"0.0-10.0-2.11"},{"rt":null,"stimulus":"\n        <div id='jspsych-image' style='position: relative; width: min(80vw, 80vh); height: min(80vw, 80vh);'>\n                \n                <div style='position: absolute; top: 40%; left: 30%; bottom: 40%; right: 30%;'><h1 style='font-size: 60px; color: green;'>Correct!</h1></div>\n                \n                <div class='jspsych-image' id='jspsych-image-0' data-choice='0' style='top: 0;     left: 0;'><img style=\"width: 100%; height: 100%;\" src='../static/human_exp_images/task_color/10_1.png' class=''></img></div>\n                <div class='jspsych-image' id='jspsych-image-1' data-choice='1' style='top: 0;     right: 0;'><img style=\"width: 100%; height: 100%;\" src='../static/human_exp_images/task_color/10_0.png' class=''></img></div>\n                <div class='jspsych-image' id='jspsych-image-2' data-choice='2' style='bottom: 0;  left: 0;'><img style=\"width: 100%; height: 100%;\" src='../static/human_exp_images/task_color/10_3.png' class='correct-choice'></img></div>\n                <div class='jspsych-image' id='jspsych-image-3' data-choice='3' style='bottom: 0;  right: 0;'><img style=\"width: 100%; height: 100%;\" src='../static/human_exp_images/task_color/10_2.png' class=''></img></div>\n\n        </div>","response":null,"trial_type":"html-keyboard-response","trial_index":151,"time_elapsed":256458,"internal_node_id":"0.0-10.0-3.11"},{"rt":null,"trial_type":"image-click","trial_index":152,"time_elapsed":256708,"internal_node_id":"0.0-10.0-0.12"},{"rt":1004,"response":1,"all_choices":["../static/human_exp_images/task_color/11_2.png","../static/human_exp_images/task_color/11_3.png","../static/human_exp_images/task_color/11_1.png","../static/human_exp_images/task_color/11_0.png"],"task":"response","correct_response":1,"shuffled_array":[2,3,1,0],"catch_trial":false,"trial_type":"image-click","trial_index":153,"time_elapsed":257714,"internal_node_id":"0.0-10.0-1.12","mouse_tracking_data":[{"x":1051,"y":522,"t":1,"event":"mousemove"},{"x":1042,"y":522,"t":13,"event":"mousemove"},{"x":1032,"y":523,"t":31,"event":"mousemove"},{"x":1018,"y":525,"t":47,"event":"mousemove"},{"x":1013,"y":525,"t":64,"event":"mousemove"},{"x":1008,"y":525,"t":81,"event":"mousemove"},{"x":1006,"y":525,"t":97,"event":"mousemove"},{"x":1005,"y":525,"t":115,"event":"mousemove"},{"x":996,"y":525,"t":131,"event":"mousemove"},{"x":976,"y":523,"t":148,"event":"mousemove"},{"x":958,"y":511,"t":164,"event":"mousemove"},{"x":942,"y":498,"t":181,"event":"mousemove"},{"x":936,"y":493,"t":198,"event":"mousemove"},{"x":935,"y":492,"t":214,"event":"mousemove"},{"x":935,"y":490,"t":232,"event":"mousemove"},{"x":936,"y":490,"t":378,"event":"mousemove"},{"x":938,"y":490,"t":423,"event":"mousemove"},{"x":940,"y":490,"t":747,"event":"mousemove"},{"x":943,"y":490,"t":756,"event":"mousemove"},{"x":946,"y":490,"t":764,"event":"mousemove"},{"x":948,"y":490,"t":769,"event":"mousemove"},{"x":952,"y":486,"t":774,"event":"mousemove"},{"x":956,"y":484,"t":777,"event":"mousemove"},{"x":978,"y":466,"t":792,"event":"mousemove"},{"x":1003,"y":444,"t":810,"event":"mousemove"},{"x":1041,"y":406,"t":825,"event":"mousemove"},{"x":1075,"y":368,"t":843,"event":"mousemove"},{"x":1098,"y":349,"t":859,"event":"mousemove"},{"x":1125,"y":327,"t":877,"event":"mousemove"},{"x":1136,"y":316,"t":893,"event":"mousemove"},{"x":1139,"y":312,"t":909,"event":"mousemove"},{"x":1141,"y":311,"t":926,"event":"mousemove"},{"x":1142,"y":309,"t":943,"event":"mousemove"}],"mouse_tracking_targets":{},"correct":true},{"rt":793,"stimulus":"<p>How confident are you about your choice ?</p>","slider_start":50,"response":100,"trial_type":"html-slider-response","trial_index":154,"time_elapsed":258508,"internal_node_id":"0.0-10.0-2.12"},{"rt":null,"stimulus":"\n        <div id='jspsych-image' style='position: relative; width: min(80vw, 80vh); height: min(80vw, 80vh);'>\n                \n                <div style='position: absolute; top: 40%; left: 30%; bottom: 40%; right: 30%;'><h1 style='font-size: 60px; color: green;'>Correct!</h1></div>\n                \n                <div class='jspsych-image' id='jspsych-image-0' data-choice='0' style='top: 0;     left: 0;'><img style=\"width: 100%; height: 100%;\" src='../static/human_exp_images/task_color/11_2.png' class=''></img></div>\n                <div class='jspsych-image' id='jspsych-image-1' data-choice='1' style='top: 0;     right: 0;'><img style=\"width: 100%; height: 100%;\" src='../static/human_exp_images/task_color/11_3.png' class='correct-choice'></img></div>\n                <div class='jspsych-image' id='jspsych-image-2' data-choice='2' style='bottom: 0;  left: 0;'><img style=\"width: 100%; height: 100%;\" src='../static/human_exp_images/task_color/11_1.png' class=''></img></div>\n                <div class='jspsych-image' id='jspsych-image-3' data-choice='3' style='bottom: 0;  right: 0;'><img style=\"width: 100%; height: 100%;\" src='../static/human_exp_images/task_color/11_0.png' class=''></img></div>\n\n        </div>","response":null,"trial_type":"html-keyboard-response","trial_index":155,"time_elapsed":260010,"internal_node_id":"0.0-10.0-3.12"},{"rt":null,"trial_type":"image-click","trial_index":156,"time_elapsed":260385,"internal_node_id":"0.0-10.0-0.13"},{"rt":884,"response":2,"all_choices":["../static/human_exp_images/task_color/12_0.png","../static/human_exp_images/task_color/12_2.png","../static/human_exp_images/task_color/12_3.png","../static/human_exp_images/task_color/12_1.png"],"task":"response","correct_response":2,"shuffled_array":[0,2,3,1],"catch_trial":false,"trial_type":"image-click","trial_index":157,"time_elapsed":261269,"internal_node_id":"0.0-10.0-1.13","mouse_tracking_data":[{"x":1026,"y":477,"t":1,"event":"mousemove"},{"x":975,"y":462,"t":15,"event":"mousemove"},{"x":939,"y":453,"t":31,"event":"mousemove"},{"x":931,"y":449,"t":47,"event":"mousemove"},{"x":928,"y":447,"t":65,"event":"mousemove"},{"x":928,"y":446,"t":105,"event":"mousemove"},{"x":928,"y":444,"t":121,"event":"mousemove"},{"x":930,"y":444,"t":171,"event":"mousemove"},{"x":933,"y":444,"t":182,"event":"mousemove"},{"x":942,"y":444,"t":198,"event":"mousemove"},{"x":960,"y":444,"t":214,"event":"mousemove"},{"x":983,"y":444,"t":231,"event":"mousemove"},{"x":1003,"y":444,"t":247,"event":"mousemove"},{"x":1028,"y":444,"t":265,"event":"mousemove"},{"x":1046,"y":448,"t":281,"event":"mousemove"},{"x":1053,"y":450,"t":298,"event":"mousemove"},{"x":1055,"y":450,"t":314,"event":"mousemove"},{"x":1055,"y":451,"t":647,"event":"mousemove"},{"x":1053,"y":451,"t":652,"event":"mousemove"},{"x":1050,"y":453,"t":655,"event":"mousemove"},{"x":1043,"y":454,"t":660,"event":"mousemove"},{"x":1034,"y":454,"t":661,"event":"mousemove"},{"x":1019,"y":458,"t":669,"event":"mousemove"},{"x":1012,"y":460,"t":670,"event":"mousemove"},{"x":997,"y":462,"t":680,"event":"mousemove"},{"x":987,"y":465,"t":682,"event":"mousemove"},{"x":940,"y":479,"t":698,"event":"mousemove"},{"x":898,"y":494,"t":716,"event":"mousemove"},{"x":837,"y":520,"t":732,"event":"mousemove"},{"x":792,"y":552,"t":749,"event":"mousemove"},{"x":758,"y":580,"t":765,"event":"mousemove"},{"x":742,"y":598,"t":783,"event":"mousemove"},{"x":732,"y":610,"t":798,"event":"mousemove"},{"x":730,"y":612,"t":815,"event":"mousemove"}],"mouse_tracking_targets":{},"correct":true},{"rt":2147,"stimulus":"<p>How confident are you about your choice ?</p>","slider_start":50,"response":100,"trial_type":"html-slider-response","trial_index":158,"time_elapsed":263418,"internal_node_id":"0.0-10.0-2.13"},{"rt":null,"stimulus":"\n        <div id='jspsych-image' style='position: relative; width: min(80vw, 80vh); height: min(80vw, 80vh);'>\n                \n                <div style='position: absolute; top: 40%; left: 30%; bottom: 40%; right: 30%;'><h1 style='font-size: 60px; color: green;'>Correct!</h1></div>\n                \n                <div class='jspsych-image' id='jspsych-image-0' data-choice='0' style='top: 0;     left: 0;'><img style=\"width: 100%; height: 100%;\" src='../static/human_exp_images/task_color/12_0.png' class=''></img></div>\n                <div class='jspsych-image' id='jspsych-image-1' data-choice='1' style='top: 0;     right: 0;'><img style=\"width: 100%; height: 100%;\" src='../static/human_exp_images/task_color/12_2.png' class=''></img></div>\n                <div class='jspsych-image' id='jspsych-image-2' data-choice='2' style='bottom: 0;  left: 0;'><img style=\"width: 100%; height: 100%;\" src='../static/human_exp_images/task_color/12_3.png' class='correct-choice'></img></div>\n                <div class='jspsych-image' id='jspsych-image-3' data-choice='3' style='bottom: 0;  right: 0;'><img style=\"width: 100%; height: 100%;\" src='../static/human_exp_images/task_color/12_1.png' class=''></img></div>\n\n        </div>","response":null,"trial_type":"html-keyboard-response","trial_index":159,"time_elapsed":264922,"internal_node_id":"0.0-10.0-3.13"},{"rt":null,"trial_type":"image-click","trial_index":160,"time_elapsed":265397,"internal_node_id":"0.0-10.0-0.14"},{"rt":819,"response":1,"all_choices":["../static/human_exp_images/task_color/13_0.png","../static/human_exp_images/task_color/13_3.png","../static/human_exp_images/task_color/13_1.png","../static/human_exp_images/task_color/13_2.png"],"task":"response","correct_response":1,"shuffled_array":[0,3,1,2],"catch_trial":false,"trial_type":"image-click","trial_index":161,"time_elapsed":266221,"internal_node_id":"0.0-10.0-1.14","mouse_tracking_data":[{"x":1040,"y":473,"t":2,"event":"mousemove"},{"x":1036,"y":473,"t":12,"event":"mousemove"},{"x":1035,"y":473,"t":29,"event":"mousemove"},{"x":1040,"y":471,"t":102,"event":"mousemove"},{"x":1050,"y":471,"t":112,"event":"mousemove"},{"x":1057,"y":469,"t":129,"event":"mousemove"},{"x":1070,"y":469,"t":145,"event":"mousemove"},{"x":1084,"y":469,"t":162,"event":"mousemove"},{"x":1094,"y":469,"t":179,"event":"mousemove"},{"x":1098,"y":469,"t":196,"event":"mousemove"},{"x":1098,"y":468,"t":511,"event":"mousemove"},{"x":1099,"y":468,"t":516,"event":"mousemove"},{"x":1101,"y":466,"t":520,"event":"mousemove"},{"x":1103,"y":464,"t":526,"event":"mousemove"},{"x":1104,"y":463,"t":527,"event":"mousemove"},{"x":1108,"y":459,"t":535,"event":"mousemove"},{"x":1110,"y":458,"t":536,"event":"mousemove"},{"x":1113,"y":453,"t":545,"event":"mousemove"},{"x":1115,"y":451,"t":546,"event":"mousemove"},{"x":1120,"y":444,"t":554,"event":"mousemove"},{"x":1122,"y":441,"t":557,"event":"mousemove"},{"x":1125,"y":432,"t":565,"event":"mousemove"},{"x":1128,"y":427,"t":568,"event":"mousemove"},{"x":1134,"y":417,"t":573,"event":"mousemove"},{"x":1137,"y":409,"t":574,"event":"mousemove"},{"x":1148,"y":379,"t":591,"event":"mousemove"},{"x":1165,"y":341,"t":608,"event":"mousemove"},{"x":1175,"y":318,"t":624,"event":"mousemove"},{"x":1188,"y":292,"t":641,"event":"mousemove"},{"x":1196,"y":279,"t":657,"event":"mousemove"},{"x":1205,"y":268,"t":674,"event":"mousemove"},{"x":1207,"y":265,"t":691,"event":"mousemove"}],"mouse_tracking_targets":{},"correct":true},{"rt":914,"stimulus":"<p>How confident are you about your choice ?</p>","slider_start":50,"response":100,"trial_type":"html-slider-response","trial_index":162,"time_elapsed":267136,"internal_node_id":"0.0-10.0-2.14"},{"rt":null,"stimulus":"\n        <div id='jspsych-image' style='position: relative; width: min(80vw, 80vh); height: min(80vw, 80vh);'>\n                \n                <div style='position: absolute; top: 40%; left: 30%; bottom: 40%; right: 30%;'><h1 style='font-size: 60px; color: green;'>Correct!</h1></div>\n                \n                <div class='jspsych-image' id='jspsych-image-0' data-choice='0' style='top: 0;     left: 0;'><img style=\"width: 100%; height: 100%;\" src='../static/human_exp_images/task_color/13_0.png' class=''></img></div>\n                <div class='jspsych-image' id='jspsych-image-1' data-choice='1' style='top: 0;     right: 0;'><img style=\"width: 100%; height: 100%;\" src='../static/human_exp_images/task_color/13_3.png' class='correct-choice'></img></div>\n                <div class='jspsych-image' id='jspsych-image-2' data-choice='2' style='bottom: 0;  left: 0;'><img style=\"width: 100%; height: 100%;\" src='../static/human_exp_images/task_color/13_1.png' class=''></img></div>\n                <div class='jspsych-image' id='jspsych-image-3' data-choice='3' style='bottom: 0;  right: 0;'><img style=\"width: 100%; height: 100%;\" src='../static/human_exp_images/task_color/13_2.png' class=''></img></div>\n\n        </div>","response":null,"trial_type":"html-keyboard-response","trial_index":163,"time_elapsed":268640,"internal_node_id":"0.0-10.0-3.14"},{"rt":null,"trial_type":"image-click","trial_index":164,"time_elapsed":269182,"internal_node_id":"0.0-10.0-0.15"},{"rt":1295,"response":0,"all_choices":["../static/human_exp_images/task_color/14_3.png","../static/human_exp_images/task_color/14_2.png","../static/human_exp_images/task_color/14_1.png","../static/human_exp_images/task_color/14_0.png"],"task":"response","correct_response":0,"shuffled_array":[3,2,1,0],"catch_trial":false,"trial_type":"image-click","trial_index":165,"time_elapsed":270483,"internal_node_id":"0.0-10.0-1.15","mouse_tracking_data":[{"x":1045,"y":470,"t":0,"event":"mousemove"},{"x":1029,"y":470,"t":10,"event":"mousemove"},{"x":1021,"y":470,"t":27,"event":"mousemove"},{"x":1014,"y":470,"t":44,"event":"mousemove"},{"x":1012,"y":470,"t":62,"event":"mousemove"},{"x":1016,"y":470,"t":158,"event":"mousemove"},{"x":1019,"y":470,"t":164,"event":"mousemove"},{"x":1024,"y":470,"t":178,"event":"mousemove"},{"x":1031,"y":470,"t":194,"event":"mousemove"},{"x":1034,"y":470,"t":211,"event":"mousemove"},{"x":1038,"y":470,"t":227,"event":"mousemove"},{"x":1045,"y":470,"t":244,"event":"mousemove"},{"x":1050,"y":470,"t":260,"event":"mousemove"},{"x":1055,"y":470,"t":278,"event":"mousemove"},{"x":1060,"y":470,"t":294,"event":"mousemove"},{"x":1062,"y":470,"t":311,"event":"mousemove"},{"x":1063,"y":470,"t":327,"event":"mousemove"},{"x":1065,"y":470,"t":344,"event":"mousemove"},{"x":1065,"y":472,"t":530,"event":"mousemove"},{"x":1063,"y":475,"t":534,"event":"mousemove"},{"x":1058,"y":477,"t":540,"event":"mousemove"},{"x":1049,"y":485,"t":544,"event":"mousemove"},{"x":1043,"y":488,"t":545,"event":"mousemove"},{"x":1025,"y":497,"t":554,"event":"mousemove"},{"x":1020,"y":502,"t":555,"event":"mousemove"},{"x":1001,"y":507,"t":563,"event":"mousemove"},{"x":990,"y":513,"t":565,"event":"mousemove"},{"x":973,"y":518,"t":572,"event":"mousemove"},{"x":964,"y":521,"t":575,"event":"mousemove"},{"x":947,"y":527,"t":581,"event":"mousemove"},{"x":934,"y":530,"t":581,"event":"mousemove"},{"x":912,"y":536,"t":598,"event":"mousemove"},{"x":879,"y":548,"t":614,"event":"mousemove"},{"x":857,"y":555,"t":631,"event":"mousemove"},{"x":844,"y":560,"t":647,"event":"mousemove"},{"x":841,"y":562,"t":664,"event":"mousemove"},{"x":839,"y":564,"t":681,"event":"mousemove"},{"x":838,"y":564,"t":698,"event":"mousemove"},{"x":836,"y":564,"t":847,"event":"mousemove"},{"x":834,"y":562,"t":891,"event":"mousemove"},{"x":834,"y":558,"t":891,"event":"mousemove"},{"x":834,"y":550,"t":907,"event":"mousemove"},{"x":834,"y":528,"t":924,"event":"mousemove"},{"x":834,"y":503,"t":941,"event":"mousemove"},{"x":834,"y":472,"t":958,"event":"mousemove"},{"x":834,"y":444,"t":974,"event":"mousemove"},{"x":830,"y":424,"t":991,"event":"mousemove"},{"x":825,"y":391,"t":1007,"event":"mousemove"},{"x":818,"y":365,"t":1025,"event":"mousemove"},{"x":814,"y":341,"t":1042,"event":"mousemove"},{"x":808,"y":325,"t":1058,"event":"mousemove"},{"x":803,"y":309,"t":1075,"event":"mousemove"},{"x":799,"y":304,"t":1090,"event":"mousemove"},{"x":794,"y":296,"t":1108,"event":"mousemove"},{"x":794,"y":293,"t":1124,"event":"mousemove"},{"x":794,"y":291,"t":1185,"event":"mousemove"},{"x":792,"y":291,"t":1213,"event":"mousemove"}],"mouse_tracking_targets":{},"correct":true},{"rt":1242,"stimulus":"<p>How confident are you about your choice ?</p>","slider_start":50,"response":100,"trial_type":"html-slider-response","trial_index":166,"time_elapsed":271731,"internal_node_id":"0.0-10.0-2.15"},{"rt":null,"stimulus":"\n        <div id='jspsych-image' style='position: relative; width: min(80vw, 80vh); height: min(80vw, 80vh);'>\n                \n                <div style='position: absolute; top: 40%; left: 30%; bottom: 40%; right: 30%;'><h1 style='font-size: 60px; color: green;'>Correct!</h1></div>\n                \n                <div class='jspsych-image' id='jspsych-image-0' data-choice='0' style='top: 0;     left: 0;'><img style=\"width: 100%; height: 100%;\" src='../static/human_exp_images/task_color/14_3.png' class='correct-choice'></img></div>\n                <div class='jspsych-image' id='jspsych-image-1' data-choice='1' style='top: 0;     right: 0;'><img style=\"width: 100%; height: 100%;\" src='../static/human_exp_images/task_color/14_2.png' class=''></img></div>\n                <div class='jspsych-image' id='jspsych-image-2' data-choice='2' style='bottom: 0;  left: 0;'><img style=\"width: 100%; height: 100%;\" src='../static/human_exp_images/task_color/14_1.png' class=''></img></div>\n                <div class='jspsych-image' id='jspsych-image-3' data-choice='3' style='bottom: 0;  right: 0;'><img style=\"width: 100%; height: 100%;\" src='../static/human_exp_images/task_color/14_0.png' class=''></img></div>\n\n        </div>","response":null,"trial_type":"html-keyboard-response","trial_index":167,"time_elapsed":273232,"internal_node_id":"0.0-10.0-3.15"},{"rt":null,"trial_type":"image-click","trial_index":168,"time_elapsed":273823,"internal_node_id":"0.0-10.0-0.16"},{"rt":953,"response":1,"all_choices":["../static/human_exp_images/task_color/15_1.png","../static/human_exp_images/task_color/15_3.png","../static/human_exp_images/task_color/15_2.png","../static/human_exp_images/task_color/15_0.png"],"task":"response","correct_response":1,"shuffled_array":[1,3,2,0],"catch_trial":false,"trial_type":"image-click","trial_index":169,"time_elapsed":274778,"internal_node_id":"0.0-10.0-1.16","mouse_tracking_data":[{"x":1047,"y":472,"t":0,"event":"mousemove"},{"x":1048,"y":472,"t":134,"event":"mousemove"},{"x":1052,"y":472,"t":149,"event":"mousemove"},{"x":1053,"y":472,"t":166,"event":"mousemove"},{"x":1055,"y":472,"t":182,"event":"mousemove"},{"x":1057,"y":472,"t":281,"event":"mousemove"},{"x":1059,"y":472,"t":291,"event":"mousemove"},{"x":1060,"y":472,"t":296,"event":"mousemove"},{"x":1062,"y":472,"t":297,"event":"mousemove"},{"x":1065,"y":472,"t":314,"event":"mousemove"},{"x":1074,"y":472,"t":331,"event":"mousemove"},{"x":1084,"y":472,"t":346,"event":"mousemove"},{"x":1089,"y":472,"t":364,"event":"mousemove"},{"x":1093,"y":472,"t":380,"event":"mousemove"},{"x":1096,"y":472,"t":397,"event":"mousemove"},{"x":1098,"y":472,"t":413,"event":"mousemove"},{"x":1100,"y":472,"t":430,"event":"mousemove"},{"x":1101,"y":472,"t":448,"event":"mousemove"},{"x":1103,"y":472,"t":463,"event":"mousemove"},{"x":1105,"y":472,"t":481,"event":"mousemove"},{"x":1106,"y":472,"t":509,"event":"mousemove"},{"x":1108,"y":472,"t":511,"event":"mousemove"},{"x":1110,"y":472,"t":527,"event":"mousemove"},{"x":1112,"y":472,"t":544,"event":"mousemove"},{"x":1113,"y":472,"t":560,"event":"mousemove"},{"x":1115,"y":472,"t":578,"event":"mousemove"},{"x":1117,"y":472,"t":594,"event":"mousemove"},{"x":1120,"y":472,"t":611,"event":"mousemove"},{"x":1123,"y":467,"t":627,"event":"mousemove"},{"x":1127,"y":460,"t":644,"event":"mousemove"},{"x":1135,"y":446,"t":660,"event":"mousemove"},{"x":1150,"y":427,"t":677,"event":"mousemove"},{"x":1162,"y":410,"t":693,"event":"mousemove"},{"x":1174,"y":392,"t":710,"event":"mousemove"},{"x":1186,"y":377,"t":727,"event":"mousemove"},{"x":1189,"y":367,"t":743,"event":"mousemove"},{"x":1192,"y":362,"t":760,"event":"mousemove"},{"x":1198,"y":353,"t":776,"event":"mousemove"},{"x":1199,"y":348,"t":793,"event":"mousemove"},{"x":1199,"y":346,"t":811,"event":"mousemove"},{"x":1199,"y":344,"t":827,"event":"mousemove"},{"x":1201,"y":343,"t":843,"event":"mousemove"},{"x":1203,"y":341,"t":860,"event":"mousemove"},{"x":1211,"y":334,"t":877,"event":"mousemove"},{"x":1221,"y":326,"t":894,"event":"mousemove"},{"x":1227,"y":320,"t":900,"event":"mousemove"},{"x":1230,"y":317,"t":910,"event":"mousemove"},{"x":1235,"y":312,"t":927,"event":"mousemove"},{"x":1237,"y":308,"t":952,"event":"mousemove"},{"x":1237,"y":307,"t":952,"event":"mousemove"}],"mouse_tracking_targets":{},"correct":true},{"rt":1894,"stimulus":"<p>How confident are you about your choice ?</p>","slider_start":50,"response":100,"trial_type":"html-slider-response","trial_index":170,"time_elapsed":276673,"internal_node_id":"0.0-10.0-2.16"},{"rt":null,"stimulus":"\n        <div id='jspsych-image' style='position: relative; width: min(80vw, 80vh); height: min(80vw, 80vh);'>\n                \n                <div style='position: absolute; top: 40%; left: 30%; bottom: 40%; right: 30%;'><h1 style='font-size: 60px; color: green;'>Correct!</h1></div>\n                \n                <div class='jspsych-image' id='jspsych-image-0' data-choice='0' style='top: 0;     left: 0;'><img style=\"width: 100%; height: 100%;\" src='../static/human_exp_images/task_color/15_1.png' class=''></img></div>\n                <div class='jspsych-image' id='jspsych-image-1' data-choice='1' style='top: 0;     right: 0;'><img style=\"width: 100%; height: 100%;\" src='../static/human_exp_images/task_color/15_3.png' class='correct-choice'></img></div>\n                <div class='jspsych-image' id='jspsych-image-2' data-choice='2' style='bottom: 0;  left: 0;'><img style=\"width: 100%; height: 100%;\" src='../static/human_exp_images/task_color/15_2.png' class=''></img></div>\n                <div class='jspsych-image' id='jspsych-image-3' data-choice='3' style='bottom: 0;  right: 0;'><img style=\"width: 100%; height: 100%;\" src='../static/human_exp_images/task_color/15_0.png' class=''></img></div>\n\n        </div>","response":null,"trial_type":"html-keyboard-response","trial_index":171,"time_elapsed":278177,"internal_node_id":"0.0-10.0-3.16"},{"rt":null,"trial_type":"image-click","trial_index":172,"time_elapsed":278655,"internal_node_id":"0.0-10.0-0.17"},{"rt":1225,"response":2,"all_choices":["../static/human_exp_images/task_color/16_0.png","../static/human_exp_images/task_color/16_1.png","../static/human_exp_images/task_color/16_3.png","../static/human_exp_images/task_color/16_2.png"],"task":"response","correct_response":2,"shuffled_array":[0,1,3,2],"catch_trial":false,"trial_type":"image-click","trial_index":173,"time_elapsed":279881,"internal_node_id":"0.0-10.0-1.17","mouse_tracking_data":[{"x":1045,"y":476,"t":1,"event":"mousemove"},{"x":1025,"y":476,"t":18,"event":"mousemove"},{"x":1020,"y":476,"t":34,"event":"mousemove"},{"x":1012,"y":476,"t":51,"event":"mousemove"},{"x":1008,"y":476,"t":67,"event":"mousemove"},{"x":1008,"y":474,"t":109,"event":"mousemove"},{"x":1008,"y":472,"t":135,"event":"mousemove"},{"x":1008,"y":469,"t":151,"event":"mousemove"},{"x":1028,"y":467,"t":168,"event":"mousemove"},{"x":1048,"y":467,"t":184,"event":"mousemove"},{"x":1074,"y":467,"t":201,"event":"mousemove"},{"x":1084,"y":467,"t":218,"event":"mousemove"},{"x":1093,"y":467,"t":235,"event":"mousemove"},{"x":1105,"y":467,"t":251,"event":"mousemove"},{"x":1113,"y":467,"t":266,"event":"mousemove"},{"x":1120,"y":467,"t":284,"event":"mousemove"},{"x":1124,"y":467,"t":301,"event":"mousemove"},{"x":1125,"y":467,"t":318,"event":"mousemove"},{"x":1125,"y":471,"t":546,"event":"mousemove"},{"x":1125,"y":474,"t":555,"event":"mousemove"},{"x":1122,"y":474,"t":557,"event":"mousemove"},{"x":1108,"y":479,"t":573,"event":"mousemove"},{"x":1089,"y":484,"t":591,"event":"mousemove"},{"x":1072,"y":486,"t":607,"event":"mousemove"},{"x":1036,"y":491,"t":624,"event":"mousemove"},{"x":1004,"y":497,"t":640,"event":"mousemove"},{"x":961,"y":520,"t":658,"event":"mousemove"},{"x":944,"y":531,"t":673,"event":"mousemove"},{"x":916,"y":557,"t":690,"event":"mousemove"},{"x":897,"y":576,"t":707,"event":"mousemove"},{"x":882,"y":591,"t":724,"event":"mousemove"},{"x":878,"y":597,"t":740,"event":"mousemove"},{"x":878,"y":593,"t":830,"event":"mousemove"},{"x":878,"y":591,"t":837,"event":"mousemove"},{"x":878,"y":590,"t":845,"event":"mousemove"},{"x":878,"y":588,"t":862,"event":"mousemove"},{"x":878,"y":586,"t":879,"event":"mousemove"},{"x":878,"y":585,"t":920,"event":"mousemove"},{"x":878,"y":583,"t":939,"event":"mousemove"},{"x":877,"y":583,"t":1020,"event":"mousemove"},{"x":870,"y":583,"t":1028,"event":"mousemove"},{"x":850,"y":583,"t":1045,"event":"mousemove"},{"x":815,"y":583,"t":1063,"event":"mousemove"},{"x":790,"y":583,"t":1078,"event":"mousemove"},{"x":778,"y":585,"t":1095,"event":"mousemove"},{"x":772,"y":585,"t":1111,"event":"mousemove"}],"mouse_tracking_targets":{},"correct":true},{"rt":1804,"stimulus":"<p>How confident are you about your choice ?</p>","slider_start":50,"response":100,"trial_type":"html-slider-response","trial_index":174,"time_elapsed":281686,"internal_node_id":"0.0-10.0-2.17"},{"rt":null,"stimulus":"\n        <div id='jspsych-image' style='position: relative; width: min(80vw, 80vh); height: min(80vw, 80vh);'>\n                \n                <div style='position: absolute; top: 40%; left: 30%; bottom: 40%; right: 30%;'><h1 style='font-size: 60px; color: green;'>Correct!</h1></div>\n                \n                <div class='jspsych-image' id='jspsych-image-0' data-choice='0' style='top: 0;     left: 0;'><img style=\"width: 100%; height: 100%;\" src='../static/human_exp_images/task_color/16_0.png' class=''></img></div>\n                <div class='jspsych-image' id='jspsych-image-1' data-choice='1' style='top: 0;     right: 0;'><img style=\"width: 100%; height: 100%;\" src='../static/human_exp_images/task_color/16_1.png' class=''></img></div>\n                <div class='jspsych-image' id='jspsych-image-2' data-choice='2' style='bottom: 0;  left: 0;'><img style=\"width: 100%; height: 100%;\" src='../static/human_exp_images/task_color/16_3.png' class='correct-choice'></img></div>\n                <div class='jspsych-image' id='jspsych-image-3' data-choice='3' style='bottom: 0;  right: 0;'><img style=\"width: 100%; height: 100%;\" src='../static/human_exp_images/task_color/16_2.png' class=''></img></div>\n\n        </div>","response":null,"trial_type":"html-keyboard-response","trial_index":175,"time_elapsed":283190,"internal_node_id":"0.0-10.0-3.17"},{"rt":null,"trial_type":"image-click","trial_index":176,"time_elapsed":283656,"internal_node_id":"0.0-10.0-0.18"},{"rt":1056,"response":0,"all_choices":["../static/human_exp_images/task_color/17_3.png","../static/human_exp_images/task_color/17_2.png","../static/human_exp_images/task_color/17_0.png","../static/human_exp_images/task_color/17_1.png"],"task":"response","correct_response":0,"shuffled_array":[3,2,0,1],"catch_trial":false,"trial_type":"image-click","trial_index":177,"time_elapsed":284714,"internal_node_id":"0.0-10.0-1.18","mouse_tracking_data":[{"x":1026,"y":444,"t":0,"event":"mousemove"},{"x":1004,"y":440,"t":16,"event":"mousemove"},{"x":983,"y":433,"t":32,"event":"mousemove"},{"x":976,"y":433,"t":49,"event":"mousemove"},{"x":969,"y":432,"t":66,"event":"mousemove"},{"x":966,"y":432,"t":83,"event":"mousemove"},{"x":966,"y":430,"t":161,"event":"mousemove"},{"x":966,"y":428,"t":188,"event":"mousemove"},{"x":966,"y":427,"t":200,"event":"mousemove"},{"x":985,"y":423,"t":216,"event":"mousemove"},{"x":1001,"y":418,"t":233,"event":"mousemove"},{"x":1017,"y":416,"t":250,"event":"mousemove"},{"x":1036,"y":412,"t":266,"event":"mousemove"},{"x":1049,"y":412,"t":282,"event":"mousemove"},{"x":1058,"y":411,"t":300,"event":"mousemove"},{"x":1061,"y":411,"t":315,"event":"mousemove"},{"x":1063,"y":411,"t":333,"event":"mousemove"},{"x":1065,"y":411,"t":349,"event":"mousemove"},{"x":1061,"y":411,"t":464,"event":"mousemove"},{"x":1056,"y":411,"t":472,"event":"mousemove"},{"x":1053,"y":411,"t":474,"event":"mousemove"},{"x":1048,"y":411,"t":477,"event":"mousemove"},{"x":1044,"y":411,"t":478,"event":"mousemove"},{"x":1039,"y":414,"t":487,"event":"mousemove"},{"x":1036,"y":414,"t":488,"event":"mousemove"},{"x":1031,"y":417,"t":495,"event":"mousemove"},{"x":1029,"y":419,"t":498,"event":"mousemove"},{"x":1026,"y":421,"t":505,"event":"mousemove"},{"x":1024,"y":421,"t":508,"event":"mousemove"},{"x":1020,"y":423,"t":514,"event":"mousemove"},{"x":1019,"y":424,"t":518,"event":"mousemove"},{"x":1017,"y":426,"t":523,"event":"mousemove"},{"x":1015,"y":426,"t":534,"event":"mousemove"},{"x":1014,"y":426,"t":544,"event":"mousemove"},{"x":1012,"y":426,"t":571,"event":"mousemove"},{"x":1010,"y":428,"t":580,"event":"mousemove"},{"x":1005,"y":428,"t":589,"event":"mousemove"},{"x":1003,"y":428,"t":591,"event":"mousemove"},{"x":986,"y":428,"t":607,"event":"mousemove"},{"x":970,"y":428,"t":624,"event":"mousemove"},{"x":947,"y":428,"t":641,"event":"mousemove"},{"x":931,"y":428,"t":657,"event":"mousemove"},{"x":921,"y":422,"t":674,"event":"mousemove"},{"x":914,"y":416,"t":691,"event":"mousemove"},{"x":906,"y":405,"t":706,"event":"mousemove"},{"x":899,"y":393,"t":724,"event":"mousemove"},{"x":892,"y":378,"t":740,"event":"mousemove"},{"x":885,"y":364,"t":757,"event":"mousemove"},{"x":880,"y":352,"t":774,"event":"mousemove"},{"x":877,"y":344,"t":790,"event":"mousemove"},{"x":870,"y":337,"t":807,"event":"mousemove"},{"x":866,"y":334,"t":824,"event":"mousemove"},{"x":861,"y":327,"t":841,"event":"mousemove"},{"x":854,"y":320,"t":857,"event":"mousemove"},{"x":849,"y":317,"t":875,"event":"mousemove"},{"x":848,"y":313,"t":890,"event":"mousemove"},{"x":842,"y":311,"t":907,"event":"mousemove"},{"x":841,"y":310,"t":923,"event":"mousemove"},{"x":837,"y":308,"t":941,"event":"mousemove"},{"x":832,"y":306,"t":958,"event":"mousemove"},{"x":831,"y":305,"t":973,"event":"mousemove"},{"x":829,"y":303,"t":991,"event":"mousemove"},{"x":827,"y":301,"t":1011,"event":"mousemove"}],"mouse_tracking_targets":{},"correct":true},{"rt":1596,"stimulus":"<p>How confident are you about your choice ?</p>","slider_start":50,"response":100,"trial_type":"html-slider-response","trial_index":178,"time_elapsed":286310,"internal_node_id":"0.0-10.0-2.18"},{"rt":null,"stimulus":"\n        <div id='jspsych-image' style='position: relative; width: min(80vw, 80vh); height: min(80vw, 80vh);'>\n                \n                <div style='position: absolute; top: 40%; left: 30%; bottom: 40%; right: 30%;'><h1 style='font-size: 60px; color: green;'>Correct!</h1></div>\n                \n                <div class='jspsych-image' id='jspsych-image-0' data-choice='0' style='top: 0;     left: 0;'><img style=\"width: 100%; height: 100%;\" src='../static/human_exp_images/task_color/17_3.png' class='correct-choice'></img></div>\n                <div class='jspsych-image' id='jspsych-image-1' data-choice='1' style='top: 0;     right: 0;'><img style=\"width: 100%; height: 100%;\" src='../static/human_exp_images/task_color/17_2.png' class=''></img></div>\n                <div class='jspsych-image' id='jspsych-image-2' data-choice='2' style='bottom: 0;  left: 0;'><img style=\"width: 100%; height: 100%;\" src='../static/human_exp_images/task_color/17_0.png' class=''></img></div>\n                <div class='jspsych-image' id='jspsych-image-3' data-choice='3' style='bottom: 0;  right: 0;'><img style=\"width: 100%; height: 100%;\" src='../static/human_exp_images/task_color/17_1.png' class=''></img></div>\n\n        </div>","response":null,"trial_type":"html-keyboard-response","trial_index":179,"time_elapsed":287814,"internal_node_id":"0.0-10.0-3.18"},{"rt":null,"trial_type":"image-click","trial_index":180,"time_elapsed":288315,"internal_node_id":"0.0-10.0-0.19"},{"rt":958,"response":2,"all_choices":["../static/human_exp_images/task_color/18_0.png","../static/human_exp_images/task_color/18_2.png","../static/human_exp_images/task_color/18_3.png","../static/human_exp_images/task_color/18_1.png"],"task":"response","correct_response":2,"shuffled_array":[0,2,3,1],"catch_trial":false,"trial_type":"image-click","trial_index":181,"time_elapsed":289274,"internal_node_id":"0.0-10.0-1.19","mouse_tracking_data":[{"x":1033,"y":473,"t":0,"event":"mousemove"},{"x":1000,"y":473,"t":16,"event":"mousemove"},{"x":981,"y":471,"t":32,"event":"mousemove"},{"x":976,"y":471,"t":49,"event":"mousemove"},{"x":972,"y":471,"t":65,"event":"mousemove"},{"x":972,"y":469,"t":120,"event":"mousemove"},{"x":972,"y":467,"t":228,"event":"mousemove"},{"x":972,"y":466,"t":246,"event":"mousemove"},{"x":972,"y":464,"t":249,"event":"mousemove"},{"x":976,"y":462,"t":254,"event":"mousemove"},{"x":979,"y":462,"t":256,"event":"mousemove"},{"x":991,"y":460,"t":272,"event":"mousemove"},{"x":1016,"y":454,"t":289,"event":"mousemove"},{"x":1031,"y":452,"t":305,"event":"mousemove"},{"x":1039,"y":449,"t":322,"event":"mousemove"},{"x":1043,"y":449,"t":338,"event":"mousemove"},{"x":1044,"y":449,"t":356,"event":"mousemove"},{"x":1046,"y":449,"t":381,"event":"mousemove"},{"x":1046,"y":447,"t":582,"event":"mousemove"},{"x":1044,"y":447,"t":711,"event":"mousemove"},{"x":1039,"y":452,"t":720,"event":"mousemove"},{"x":1038,"y":454,"t":722,"event":"mousemove"},{"x":1016,"y":471,"t":738,"event":"mousemove"},{"x":994,"y":487,"t":756,"event":"mousemove"},{"x":941,"y":524,"t":771,"event":"mousemove"},{"x":885,"y":562,"t":788,"event":"mousemove"},{"x":835,"y":596,"t":805,"event":"mousemove"},{"x":817,"y":610,"t":822,"event":"mousemove"},{"x":804,"y":625,"t":837,"event":"mousemove"},{"x":802,"y":626,"t":855,"event":"mousemove"}],"mouse_tracking_targets":{},"correct":true},{"rt":1564,"stimulus":"<p>How confident are you about your choice ?</p>","slider_start":50,"response":100,"trial_type":"html-slider-response","trial_index":182,"time_elapsed":290840,"internal_node_id":"0.0-10.0-2.19"},{"rt":null,"stimulus":"\n        <div id='jspsych-image' style='position: relative; width: min(80vw, 80vh); height: min(80vw, 80vh);'>\n                \n                <div style='position: absolute; top: 40%; left: 30%; bottom: 40%; right: 30%;'><h1 style='font-size: 60px; color: green;'>Correct!</h1></div>\n                \n                <div class='jspsych-image' id='jspsych-image-0' data-choice='0' style='top: 0;     left: 0;'><img style=\"width: 100%; height: 100%;\" src='../static/human_exp_images/task_color/18_0.png' class=''></img></div>\n                <div class='jspsych-image' id='jspsych-image-1' data-choice='1' style='top: 0;     right: 0;'><img style=\"width: 100%; height: 100%;\" src='../static/human_exp_images/task_color/18_2.png' class=''></img></div>\n                <div class='jspsych-image' id='jspsych-image-2' data-choice='2' style='bottom: 0;  left: 0;'><img style=\"width: 100%; height: 100%;\" src='../static/human_exp_images/task_color/18_3.png' class='correct-choice'></img></div>\n                <div class='jspsych-image' id='jspsych-image-3' data-choice='3' style='bottom: 0;  right: 0;'><img style=\"width: 100%; height: 100%;\" src='../static/human_exp_images/task_color/18_1.png' class=''></img></div>\n\n        </div>","response":null,"trial_type":"html-keyboard-response","trial_index":183,"time_elapsed":292342,"internal_node_id":"0.0-10.0-3.19"},{"rt":null,"trial_type":"image-click","trial_index":184,"time_elapsed":293013,"internal_node_id":"0.0-10.0-0.20"},{"rt":1604,"response":2,"all_choices":["../static/human_exp_images/task_color/19_2.png","../static/human_exp_images/task_color/19_0.png","../static/human_exp_images/task_color/19_3.png","../static/human_exp_images/task_color/19_1.png"],"task":"response","correct_response":2,"shuffled_array":[2,0,3,1],"catch_trial":false,"trial_type":"image-click","trial_index":185,"time_elapsed":294620,"internal_node_id":"0.0-10.0-1.20","mouse_tracking_data":[{"x":1020,"y":471,"t":1,"event":"mousemove"},{"x":987,"y":466,"t":14,"event":"mousemove"},{"x":970,"y":460,"t":30,"event":"mousemove"},{"x":962,"y":455,"t":47,"event":"mousemove"},{"x":960,"y":453,"t":65,"event":"mousemove"},{"x":958,"y":453,"t":80,"event":"mousemove"},{"x":956,"y":452,"t":101,"event":"mousemove"},{"x":956,"y":450,"t":138,"event":"mousemove"},{"x":956,"y":448,"t":212,"event":"mousemove"},{"x":956,"y":446,"t":239,"event":"mousemove"},{"x":956,"y":445,"t":249,"event":"mousemove"},{"x":958,"y":445,"t":263,"event":"mousemove"},{"x":965,"y":445,"t":266,"event":"mousemove"},{"x":969,"y":445,"t":267,"event":"mousemove"},{"x":985,"y":445,"t":284,"event":"mousemove"},{"x":1013,"y":445,"t":300,"event":"mousemove"},{"x":1034,"y":445,"t":317,"event":"mousemove"},{"x":1048,"y":445,"t":334,"event":"mousemove"},{"x":1056,"y":445,"t":350,"event":"mousemove"},{"x":1063,"y":445,"t":367,"event":"mousemove"},{"x":1065,"y":445,"t":383,"event":"mousemove"},{"x":1060,"y":445,"t":595,"event":"mousemove"},{"x":1058,"y":445,"t":598,"event":"mousemove"},{"x":1035,"y":445,"t":615,"event":"mousemove"},{"x":1005,"y":449,"t":631,"event":"mousemove"},{"x":991,"y":451,"t":647,"event":"mousemove"},{"x":964,"y":453,"t":665,"event":"mousemove"},{"x":938,"y":460,"t":681,"event":"mousemove"},{"x":917,"y":464,"t":698,"event":"mousemove"},{"x":898,"y":469,"t":714,"event":"mousemove"},{"x":883,"y":473,"t":732,"event":"mousemove"},{"x":871,"y":480,"t":748,"event":"mousemove"},{"x":863,"y":485,"t":764,"event":"mousemove"},{"x":847,"y":499,"t":782,"event":"mousemove"},{"x":834,"y":512,"t":798,"event":"mousemove"},{"x":809,"y":534,"t":815,"event":"mousemove"},{"x":797,"y":548,"t":831,"event":"mousemove"},{"x":787,"y":556,"t":848,"event":"mousemove"},{"x":777,"y":563,"t":865,"event":"mousemove"},{"x":775,"y":567,"t":882,"event":"mousemove"},{"x":777,"y":567,"t":941,"event":"mousemove"},{"x":780,"y":567,"t":949,"event":"mousemove"},{"x":797,"y":565,"t":965,"event":"mousemove"},{"x":815,"y":558,"t":982,"event":"mousemove"},{"x":828,"y":556,"t":997,"event":"mousemove"},{"x":839,"y":555,"t":1015,"event":"mousemove"},{"x":847,"y":555,"t":1031,"event":"mousemove"},{"x":857,"y":555,"t":1048,"event":"mousemove"},{"x":869,"y":555,"t":1065,"event":"mousemove"},{"x":881,"y":555,"t":1081,"event":"mousemove"},{"x":890,"y":553,"t":1098,"event":"mousemove"},{"x":897,"y":553,"t":1114,"event":"mousemove"},{"x":900,"y":553,"t":1131,"event":"mousemove"},{"x":900,"y":551,"t":1148,"event":"mousemove"},{"x":902,"y":551,"t":1165,"event":"mousemove"},{"x":902,"y":553,"t":1326,"event":"mousemove"},{"x":898,"y":558,"t":1331,"event":"mousemove"},{"x":897,"y":560,"t":1336,"event":"mousemove"},{"x":892,"y":563,"t":1342,"event":"mousemove"},{"x":889,"y":565,"t":1345,"event":"mousemove"},{"x":874,"y":577,"t":1362,"event":"mousemove"},{"x":862,"y":584,"t":1378,"event":"mousemove"},{"x":851,"y":591,"t":1394,"event":"mousemove"},{"x":839,"y":598,"t":1412,"event":"mousemove"},{"x":825,"y":605,"t":1428,"event":"mousemove"},{"x":818,"y":608,"t":1445,"event":"mousemove"},{"x":814,"y":610,"t":1462,"event":"mousemove"},{"x":813,"y":610,"t":1496,"event":"mousemove"}],"mouse_tracking_targets":{},"correct":true},{"rt":1935,"stimulus":"<p>How confident are you about your choice ?</p>","slider_start":50,"response":100,"trial_type":"html-slider-response","trial_index":186,"time_elapsed":296557,"internal_node_id":"0.0-10.0-2.20"},{"rt":null,"stimulus":"\n        <div id='jspsych-image' style='position: relative; width: min(80vw, 80vh); height: min(80vw, 80vh);'>\n                \n                <div style='position: absolute; top: 40%; left: 30%; bottom: 40%; right: 30%;'><h1 style='font-size: 60px; color: green;'>Correct!</h1></div>\n                \n                <div class='jspsych-image' id='jspsych-image-0' data-choice='0' style='top: 0;     left: 0;'><img style=\"width: 100%; height: 100%;\" src='../static/human_exp_images/task_color/19_2.png' class=''></img></div>\n                <div class='jspsych-image' id='jspsych-image-1' data-choice='1' style='top: 0;     right: 0;'><img style=\"width: 100%; height: 100%;\" src='../static/human_exp_images/task_color/19_0.png' class=''></img></div>\n                <div class='jspsych-image' id='jspsych-image-2' data-choice='2' style='bottom: 0;  left: 0;'><img style=\"width: 100%; height: 100%;\" src='../static/human_exp_images/task_color/19_3.png' class='correct-choice'></img></div>\n                <div class='jspsych-image' id='jspsych-image-3' data-choice='3' style='bottom: 0;  right: 0;'><img style=\"width: 100%; height: 100%;\" src='../static/human_exp_images/task_color/19_1.png' class=''></img></div>\n\n        </div>","response":null,"trial_type":"html-keyboard-response","trial_index":187,"time_elapsed":298059,"internal_node_id":"0.0-10.0-3.20"}]