[{"rt":null,"trial_type":"image-click","trial_index":18,"time_elapsed":61470,"internal_node_id":"0.0-7.0-0.0"},{"rt":1888,"response":3,"all_choices":["../static/human_exp_images/task_shape/00_0.png","../static/human_exp_images/task_shape/00_2.png","../static/human_exp_images/task_shape/00_1.png","../static/human_exp_images/task_shape/00_3.png"],"task":"response","correct_response":3,"shuffled_array":[0,2,1,3],"catch_trial":false,"trial_type":"image-click","trial_index":19,"time_elapsed":63359,"internal_node_id":"0.0-7.0-1.0","mouse_tracking_data":[{"x":1045,"y":456,"t":0,"event":"mousemove"},{"x":996,"y":443,"t":14,"event":"mousemove"},{"x":986,"y":438,"t":30,"event":"mousemove"},{"x":974,"y":433,"t":47,"event":"mousemove"},{"x":967,"y":426,"t":64,"event":"mousemove"},{"x":960,"y":421,"t":81,"event":"mousemove"},{"x":956,"y":417,"t":98,"event":"mousemove"},{"x":958,"y":417,"t":254,"event":"mousemove"},{"x":962,"y":417,"t":256,"event":"mousemove"},{"x":963,"y":417,"t":259,"event":"mousemove"},{"x":968,"y":417,"t":275,"event":"mousemove"},{"x":975,"y":417,"t":292,"event":"mousemove"},{"x":980,"y":417,"t":307,"event":"mousemove"},{"x":982,"y":417,"t":325,"event":"mousemove"},{"x":984,"y":417,"t":676,"event":"mousemove"},{"x":985,"y":417,"t":694,"event":"mousemove"},{"x":987,"y":417,"t":704,"event":"mousemove"},{"x":989,"y":421,"t":712,"event":"mousemove"},{"x":990,"y":422,"t":714,"event":"mousemove"},{"x":994,"y":438,"t":730,"event":"mousemove"},{"x":1001,"y":452,"t":747,"event":"mousemove"},{"x":1016,"y":479,"t":763,"event":"mousemove"},{"x":1040,"y":506,"t":780,"event":"mousemove"},{"x":1089,"y":544,"t":796,"event":"mousemove"},{"x":1126,"y":574,"t":814,"event":"mousemove"},{"x":1152,"y":599,"t":830,"event":"mousemove"},{"x":1178,"y":626,"t":846,"event":"mousemove"},{"x":1185,"y":637,"t":864,"event":"mousemove"},{"x":1187,"y":639,"t":880,"event":"mousemove"},{"x":1188,"y":639,"t":1316,"event":"mousemove"},{"x":1190,"y":639,"t":1321,"event":"mousemove"},{"x":1192,"y":639,"t":1340,"event":"mousemove"},{"x":1193,"y":639,"t":1348,"event":"mousemove"},{"x":1195,"y":639,"t":1358,"event":"mousemove"},{"x":1197,"y":639,"t":1367,"event":"mousemove"},{"x":1199,"y":639,"t":1385,"event":"mousemove"},{"x":1200,"y":635,"t":1394,"event":"mousemove"},{"x":1202,"y":634,"t":1396,"event":"mousemove"},{"x":1204,"y":632,"t":1404,"event":"mousemove"},{"x":1204,"y":630,"t":1410,"event":"mousemove"},{"x":1205,"y":628,"t":1413,"event":"mousemove"},{"x":1205,"y":627,"t":1414,"event":"mousemove"},{"x":1209,"y":622,"t":1429,"event":"mousemove"},{"x":1212,"y":620,"t":1446,"event":"mousemove"},{"x":1219,"y":612,"t":1462,"event":"mousemove"},{"x":1222,"y":607,"t":1479,"event":"mousemove"},{"x":1226,"y":605,"t":1496,"event":"mousemove"},{"x":1228,"y":604,"t":1513,"event":"mousemove"},{"x":1228,"y":602,"t":1532,"event":"mousemove"},{"x":1229,"y":602,"t":1539,"event":"mousemove"},{"x":1231,"y":602,"t":1558,"event":"mousemove"},{"x":1233,"y":602,"t":1585,"event":"mousemove"},{"x":1234,"y":602,"t":1598,"event":"mousemove"},{"x":1236,"y":602,"t":1604,"event":"mousemove"},{"x":1238,"y":602,"t":1618,"event":"mousemove"},{"x":1240,"y":602,"t":1622,"event":"mousemove"},{"x":1241,"y":602,"t":1630,"event":"mousemove"},{"x":1243,"y":602,"t":1647,"event":"mousemove"},{"x":1245,"y":602,"t":1661,"event":"mousemove"},{"x":1246,"y":602,"t":1676,"event":"mousemove"},{"x":1248,"y":602,"t":1693,"event":"mousemove"},{"x":1250,"y":604,"t":1703,"event":"mousemove"},{"x":1250,"y":605,"t":1704,"event":"mousemove"},{"x":1251,"y":609,"t":1720,"event":"mousemove"},{"x":1253,"y":612,"t":1737,"event":"mousemove"},{"x":1253,"y":617,"t":1753,"event":"mousemove"},{"x":1255,"y":622,"t":1771,"event":"mousemove"},{"x":1257,"y":624,"t":1786,"event":"mousemove"},{"x":1258,"y":626,"t":1804,"event":"mousemove"},{"x":1258,"y":628,"t":1820,"event":"mousemove"}],"mouse_tracking_targets":{},"correct":true},{"rt":808,"stimulus":"<p>How confident are you about your choice ?</p>","slider_start":50,"response":88,"trial_type":"html-slider-response","trial_index":20,"time_elapsed":64168,"internal_node_id":"0.0-7.0-2.0"},{"rt":null,"stimulus":"\n        <div id='jspsych-image' style='position: relative; width: min(80vw, 80vh); height: min(80vw, 80vh);'>\n                \n                <div style='position: absolute; top: 40%; left: 30%; bottom: 40%; right: 30%;'><h1 style='font-size: 60px; color: green;'>Correct!</h1></div>\n                \n                <div class='jspsych-image' id='jspsych-image-0' data-choice='0' style='top: 0;     left: 0;'><img style=\"width: 100%; height: 100%;\" src='../static/human_exp_images/task_shape/00_0.png' class=''></img></div>\n                <div class='jspsych-image' id='jspsych-image-1' data-choice='1' style='top: 0;     right: 0;'><img style=\"width: 100%; height: 100%;\" src='../static/human_exp_images/task_shape/00_2.png' class=''></img></div>\n                <div class='jspsych-image' id='jspsych-image-2' data-choice='2' style='bottom: 0;  left: 0;'><img style=\"width: 100%; height: 100%;\" src='../static/human_exp_images/task_shape/00_1.png' class=''></img></div>\n                <div class='jspsych-image' id='jspsych-image-3' data-choice='3' style='bottom: 0;  right: 0;'><img style=\"width: 100%; height: 100%;\" src='../static/human_exp_images/task_shape/00_3.png' class='correct-choice'></img></div>\n\n        </div>","response":null,"trial_type":"html-keyboard-response","trial_index":21,"time_elapsed":65672,"internal_node_id":"0.0-7.0-3.0"},{"rt":null,"trial_type":"image-click","trial_index":22,"time_elapsed":66266,"internal_node_id":"0.0-7.0-0.1"},{"rt":1951,"response":1,"all_choices":["../static/human_exp_images/task_shape/01_1.png","../static/human_exp_images/task_shape/01_3.png","../static/human_exp_images/task_shape/01_0.png","../static/human_exp_images/task_shape/01_2.png"],"task":"response","correct_response":1,"shuffled_array":[1,3,0,2],"catch_trial":false,"trial_type":"image-click","trial_index":23,"time_elapsed":68220,"internal_node_id":"0.0-7.0-1.1","mouse_tracking_data":[{"x":1044,"y":460,"t":1,"event":"mousemove"},{"x":1020,"y":460,"t":14,"event":"mousemove"},{"x":1008,"y":460,"t":30,"event":"mousemove"},{"x":998,"y":460,"t":48,"event":"mousemove"},{"x":993,"y":460,"t":65,"event":"mousemove"},{"x":991,"y":460,"t":97,"event":"mousemove"},{"x":991,"y":458,"t":144,"event":"mousemove"},{"x":991,"y":457,"t":725,"event":"mousemove"},{"x":991,"y":455,"t":1687,"event":"mousemove"},{"x":991,"y":454,"t":1703,"event":"mousemove"},{"x":991,"y":452,"t":1712,"event":"mousemove"},{"x":991,"y":450,"t":1729,"event":"mousemove"},{"x":991,"y":449,"t":1733,"event":"mousemove"},{"x":991,"y":447,"t":1743,"event":"mousemove"},{"x":995,"y":443,"t":1747,"event":"mousemove"},{"x":998,"y":443,"t":1748,"event":"mousemove"},{"x":1004,"y":438,"t":1758,"event":"mousemove"},{"x":1007,"y":435,"t":1760,"event":"mousemove"},{"x":1021,"y":422,"t":1776,"event":"mousemove"},{"x":1055,"y":399,"t":1793,"event":"mousemove"},{"x":1107,"y":365,"t":1809,"event":"mousemove"},{"x":1161,"y":332,"t":1827,"event":"mousemove"},{"x":1208,"y":300,"t":1842,"event":"mousemove"},{"x":1248,"y":268,"t":1859,"event":"mousemove"},{"x":1258,"y":260,"t":1875,"event":"mousemove"},{"x":1263,"y":257,"t":1892,"event":"mousemove"},{"x":1265,"y":253,"t":1909,"event":"mousemove"}],"mouse_tracking_targets":{},"correct":true},{"rt":1127,"stimulus":"<p>How confident are you about your choice ?</p>","slider_start":50,"response":91,"trial_type":"html-slider-response","trial_index":24,"time_elapsed":69347,"internal_node_id":"0.0-7.0-2.1"},{"rt":null,"stimulus":"\n        <div id='jspsych-image' style='position: relative; width: min(80vw, 80vh); height: min(80vw, 80vh);'>\n                \n                <div style='position: absolute; top: 40%; left: 30%; bottom: 40%; right: 30%;'><h1 style='font-size: 60px; color: green;'>Correct!</h1></div>\n                \n                <div class='jspsych-image' id='jspsych-image-0' data-choice='0' style='top: 0;     left: 0;'><img style=\"width: 100%; height: 100%;\" src='../static/human_exp_images/task_shape/01_1.png' class=''></img></div>\n                <div class='jspsych-image' id='jspsych-image-1' data-choice='1' style='top: 0;     right: 0;'><img style=\"width: 100%; height: 100%;\" src='../static/human_exp_images/task_shape/01_3.png' class='correct-choice'></img></div>\n                <div class='jspsych-image' id='jspsych-image-2' data-choice='2' style='bottom: 0;  left: 0;'><img style=\"width: 100%; height: 100%;\" src='../static/human_exp_images/task_shape/01_0.png' class=''></img></div>\n                <div class='jspsych-image' id='jspsych-image-3' data-choice='3' style='bottom: 0;  right: 0;'><img style=\"width: 100%; height: 100%;\" src='../static/human_exp_images/task_shape/01_2.png' class=''></img></div>\n\n        </div>","response":null,"trial_type":"html-keyboard-response","trial_index":25,"time_elapsed":70851,"internal_node_id":"0.0-7.0-3.1"},{"rt":null,"trial_type":"image-click","trial_index":26,"time_elapsed":71731,"internal_node_id":"0.0-7.0-0.2"},{"rt":1324,"response":3,"all_choices":["../static/human_exp_images/task_shape/02_0.png","../static/human_exp_images/task_shape/02_2.png","../static/human_exp_images/task_shape/02_1.png","../static/human_exp_images/task_shape/02_3.png"],"task":"response","correct_response":3,"shuffled_array":[0,2,1,3],"catch_trial":false,"trial_type":"image-click","trial_index":27,"time_elapsed":73058,"internal_node_id":"0.0-7.0-1.2","mouse_tracking_data":[{"x":1042,"y":467,"t":1,"event":"mousemove"},{"x":1033,"y":467,"t":15,"event":"mousemove"},{"x":1028,"y":467,"t":31,"event":"mousemove"},{"x":1021,"y":467,"t":47,"event":"mousemove"},{"x":1016,"y":467,"t":64,"event":"mousemove"},{"x":1011,"y":467,"t":81,"event":"mousemove"},{"x":1004,"y":467,"t":99,"event":"mousemove"},{"x":1001,"y":467,"t":115,"event":"mousemove"},{"x":999,"y":467,"t":131,"event":"mousemove"},{"x":1000,"y":467,"t":933,"event":"mousemove"},{"x":1002,"y":467,"t":942,"event":"mousemove"},{"x":1004,"y":467,"t":944,"event":"mousemove"},{"x":1007,"y":470,"t":959,"event":"mousemove"},{"x":1011,"y":474,"t":977,"event":"mousemove"},{"x":1016,"y":481,"t":992,"event":"mousemove"},{"x":1021,"y":491,"t":1010,"event":"mousemove"},{"x":1030,"y":503,"t":1026,"event":"mousemove"},{"x":1038,"y":518,"t":1042,"event":"mousemove"},{"x":1043,"y":532,"t":1059,"event":"mousemove"},{"x":1049,"y":546,"t":1076,"event":"mousemove"},{"x":1055,"y":566,"t":1093,"event":"mousemove"},{"x":1059,"y":579,"t":1110,"event":"mousemove"},{"x":1064,"y":591,"t":1127,"event":"mousemove"},{"x":1067,"y":598,"t":1143,"event":"mousemove"},{"x":1071,"y":602,"t":1160,"event":"mousemove"},{"x":1072,"y":608,"t":1176,"event":"mousemove"},{"x":1074,"y":612,"t":1193,"event":"mousemove"},{"x":1076,"y":614,"t":1209,"event":"mousemove"}],"mouse_tracking_targets":{},"correct":true},{"rt":757,"stimulus":"<p>How confident are you about your choice ?</p>","slider_start":50,"response":85,"trial_type":"html-slider-response","trial_index":28,"time_elapsed":73818,"internal_node_id":"0.0-7.0-2.2"},{"rt":null,"stimulus":"\n        <div id='jspsych-image' style='position: relative; width: min(80vw, 80vh); height: min(80vw, 80vh);'>\n                \n                <div style='position: absolute; top: 40%; left: 30%; bottom: 40%; right: 30%;'><h1 style='font-size: 60px; color: green;'>Correct!</h1></div>\n                \n                <div class='jspsych-image' id='jspsych-image-0' data-choice='0' style='top: 0;     left: 0;'><img style=\"width: 100%; height: 100%;\" src='../static/human_exp_images/task_shape/02_0.png' class=''></img></div>\n                <div class='jspsych-image' id='jspsych-image-1' data-choice='1' style='top: 0;     right: 0;'><img style=\"width: 100%; height: 100%;\" src='../static/human_exp_images/task_shape/02_2.png' class=''></img></div>\n                <div class='jspsych-image' id='jspsych-image-2' data-choice='2' style='bottom: 0;  left: 0;'><img style=\"width: 100%; height: 100%;\" src='../static/human_exp_images/task_shape/02_1.png' class=''></img></div>\n                <div class='jspsych-image' id='jspsych-image-3' data-choice='3' style='bottom: 0;  right: 0;'><img style=\"width: 100%; height: 100%;\" src='../static/human_exp_images/task_shape/02_3.png' class='correct-choice'></img></div>\n\n        </div>","response":null,"trial_type":"html-keyboard-response","trial_index":29,"time_elapsed":75323,"internal_node_id":"0.0-7.0-3.2"},{"rt":null,"trial_type":"image-click","trial_index":30,"time_elapsed":79074,"internal_node_id":"0.0-7.0-0.3"},{"rt":1479,"response":2,"all_choices":["../static/human_exp_images/task_shape/03_0.png","../static/human_exp_images/task_shape/03_2.png","../static/human_exp_images/task_shape/03_3.png","../static/human_exp_images/task_shape/03_1.png"],"task":"response","correct_response":2,"shuffled_array":[0,2,3,1],"catch_trial":false,"trial_type":"image-click","trial_index":31,"time_elapsed":80556,"internal_node_id":"0.0-7.0-1.3","mouse_tracking_data":[{"x":1044,"y":475,"t":1,"event":"mousemove"},{"x":1041,"y":475,"t":15,"event":"mousemove"},{"x":1036,"y":475,"t":31,"event":"mousemove"},{"x":1034,"y":475,"t":53,"event":"mousemove"},{"x":1032,"y":475,"t":151,"event":"mousemove"},{"x":1030,"y":475,"t":165,"event":"mousemove"},{"x":1024,"y":475,"t":182,"event":"mousemove"},{"x":1017,"y":475,"t":199,"event":"mousemove"},{"x":1013,"y":475,"t":215,"event":"mousemove"},{"x":1010,"y":475,"t":231,"event":"mousemove"},{"x":1008,"y":475,"t":249,"event":"mousemove"},{"x":1007,"y":475,"t":270,"event":"mousemove"},{"x":1007,"y":472,"t":1043,"event":"mousemove"},{"x":1007,"y":469,"t":1052,"event":"mousemove"},{"x":1007,"y":467,"t":1055,"event":"mousemove"},{"x":1007,"y":465,"t":1061,"event":"mousemove"},{"x":1005,"y":465,"t":1080,"event":"mousemove"},{"x":1003,"y":465,"t":1087,"event":"mousemove"},{"x":1000,"y":465,"t":1099,"event":"mousemove"},{"x":998,"y":465,"t":1100,"event":"mousemove"},{"x":995,"y":465,"t":1107,"event":"mousemove"},{"x":993,"y":465,"t":1111,"event":"mousemove"},{"x":989,"y":465,"t":1115,"event":"mousemove"},{"x":986,"y":465,"t":1116,"event":"mousemove"},{"x":981,"y":465,"t":1133,"event":"mousemove"},{"x":970,"y":471,"t":1150,"event":"mousemove"},{"x":962,"y":477,"t":1166,"event":"mousemove"},{"x":957,"y":483,"t":1183,"event":"mousemove"},{"x":950,"y":486,"t":1200,"event":"mousemove"},{"x":945,"y":494,"t":1216,"event":"mousemove"},{"x":940,"y":498,"t":1232,"event":"mousemove"},{"x":929,"y":510,"t":1250,"event":"mousemove"},{"x":919,"y":522,"t":1266,"event":"mousemove"},{"x":904,"y":539,"t":1283,"event":"mousemove"},{"x":884,"y":560,"t":1300,"event":"mousemove"},{"x":864,"y":580,"t":1316,"event":"mousemove"},{"x":839,"y":610,"t":1334,"event":"mousemove"},{"x":821,"y":628,"t":1350,"event":"mousemove"},{"x":801,"y":648,"t":1366,"event":"mousemove"},{"x":790,"y":661,"t":1383,"event":"mousemove"},{"x":787,"y":666,"t":1400,"event":"mousemove"}],"mouse_tracking_targets":{},"correct":true},{"rt":1168,"stimulus":"<p>How confident are you about your choice ?</p>","slider_start":50,"response":90,"trial_type":"html-slider-response","trial_index":32,"time_elapsed":81724,"internal_node_id":"0.0-7.0-2.3"},{"rt":null,"stimulus":"\n        <div id='jspsych-image' style='position: relative; width: min(80vw, 80vh); height: min(80vw, 80vh);'>\n                \n                <div style='position: absolute; top: 40%; left: 30%; bottom: 40%; right: 30%;'><h1 style='font-size: 60px; color: green;'>Correct!</h1></div>\n                \n                <div class='jspsych-image' id='jspsych-image-0' data-choice='0' style='top: 0;     left: 0;'><img style=\"width: 100%; height: 100%;\" src='../static/human_exp_images/task_shape/03_0.png' class=''></img></div>\n                <div class='jspsych-image' id='jspsych-image-1' data-choice='1' style='top: 0;     right: 0;'><img style=\"width: 100%; height: 100%;\" src='../static/human_exp_images/task_shape/03_2.png' class=''></img></div>\n                <div class='jspsych-image' id='jspsych-image-2' data-choice='2' style='bottom: 0;  left: 0;'><img style=\"width: 100%; height: 100%;\" src='../static/human_exp_images/task_shape/03_3.png' class='correct-choice'></img></div>\n                <div class='jspsych-image' id='jspsych-image-3' data-choice='3' style='bottom: 0;  right: 0;'><img style=\"width: 100%; height: 100%;\" src='../static/human_exp_images/task_shape/03_1.png' class=''></img></div>\n\n        </div>","response":null,"trial_type":"html-keyboard-response","trial_index":33,"time_elapsed":83229,"internal_node_id":"0.0-7.0-3.3"},{"rt":null,"trial_type":"image-click","trial_index":34,"time_elapsed":85014,"internal_node_id":"0.0-7.0-0.4"},{"rt":1386,"response":1,"all_choices":["../static/human_exp_images/task_shape/04_0.png","../static/human_exp_images/task_shape/04_3.png","../static/human_exp_images/task_shape/04_1.png","../static/human_exp_images/task_shape/04_2.png"],"task":"response","correct_response":1,"shuffled_array":[0,3,1,2],"catch_trial":false,"trial_type":"image-click","trial_index":35,"time_elapsed":86405,"internal_node_id":"0.0-7.0-1.4","mouse_tracking_data":[{"x":1051,"y":472,"t":1,"event":"mousemove"},{"x":987,"y":460,"t":14,"event":"mousemove"},{"x":946,"y":450,"t":29,"event":"mousemove"},{"x":897,"y":444,"t":46,"event":"mousemove"},{"x":874,"y":437,"t":62,"event":"mousemove"},{"x":871,"y":435,"t":80,"event":"mousemove"},{"x":869,"y":435,"t":97,"event":"mousemove"},{"x":869,"y":434,"t":113,"event":"mousemove"},{"x":871,"y":434,"t":301,"event":"mousemove"},{"x":872,"y":434,"t":307,"event":"mousemove"},{"x":874,"y":434,"t":310,"event":"mousemove"},{"x":877,"y":434,"t":316,"event":"mousemove"},{"x":879,"y":434,"t":320,"event":"mousemove"},{"x":881,"y":434,"t":324,"event":"mousemove"},{"x":883,"y":434,"t":325,"event":"mousemove"},{"x":886,"y":434,"t":342,"event":"mousemove"},{"x":895,"y":434,"t":358,"event":"mousemove"},{"x":901,"y":434,"t":375,"event":"mousemove"},{"x":906,"y":434,"t":392,"event":"mousemove"},{"x":913,"y":434,"t":408,"event":"mousemove"},{"x":917,"y":434,"t":425,"event":"mousemove"},{"x":920,"y":434,"t":442,"event":"mousemove"},{"x":922,"y":434,"t":458,"event":"mousemove"},{"x":925,"y":434,"t":475,"event":"mousemove"},{"x":927,"y":434,"t":495,"event":"mousemove"},{"x":929,"y":434,"t":515,"event":"mousemove"},{"x":930,"y":434,"t":990,"event":"mousemove"},{"x":932,"y":434,"t":1002,"event":"mousemove"},{"x":934,"y":434,"t":1009,"event":"mousemove"},{"x":935,"y":434,"t":1018,"event":"mousemove"},{"x":937,"y":434,"t":1022,"event":"mousemove"},{"x":939,"y":434,"t":1027,"event":"mousemove"},{"x":942,"y":434,"t":1039,"event":"mousemove"},{"x":944,"y":432,"t":1040,"event":"mousemove"},{"x":949,"y":428,"t":1056,"event":"mousemove"},{"x":963,"y":418,"t":1074,"event":"mousemove"},{"x":976,"y":404,"t":1089,"event":"mousemove"},{"x":994,"y":387,"t":1106,"event":"mousemove"},{"x":1011,"y":370,"t":1123,"event":"mousemove"},{"x":1039,"y":348,"t":1140,"event":"mousemove"},{"x":1051,"y":339,"t":1156,"event":"mousemove"},{"x":1065,"y":326,"t":1173,"event":"mousemove"},{"x":1076,"y":319,"t":1190,"event":"mousemove"},{"x":1086,"y":312,"t":1207,"event":"mousemove"},{"x":1095,"y":307,"t":1224,"event":"mousemove"},{"x":1098,"y":307,"t":1240,"event":"mousemove"},{"x":1098,"y":306,"t":1257,"event":"mousemove"},{"x":1098,"y":304,"t":1303,"event":"mousemove"}],"mouse_tracking_targets":{},"correct":true},{"rt":804,"stimulus":"<p>How confident are you about your choice ?</p>","slider_start":50,"response":97,"trial_type":"html-slider-response","trial_index":36,"time_elapsed":87212,"internal_node_id":"0.0-7.0-2.4"},{"rt":null,"stimulus":"\n        <div id='jspsych-image' style='position: relative; width: min(80vw, 80vh); height: min(80vw, 80vh);'>\n                \n                <div style='position: absolute; top: 40%; left: 30%; bottom: 40%; right: 30%;'><h1 style='font-size: 60px; color: green;'>Correct!</h1></div>\n                \n                <div class='jspsych-image' id='jspsych-image-0' data-choice='0' style='top: 0;     left: 0;'><img style=\"width: 100%; height: 100%;\" src='../static/human_exp_images/task_shape/04_0.png' class=''></img></div>\n                <div class='jspsych-image' id='jspsych-image-1' data-choice='1' style='top: 0;     right: 0;'><img style=\"width: 100%; height: 100%;\" src='../static/human_exp_images/task_shape/04_3.png' class='correct-choice'></img></div>\n                <div class='jspsych-image' id='jspsych-image-2' data-choice='2' style='bottom: 0;  left: 0;'><img style=\"width: 100%; height: 100%;\" src='../static/human_exp_images/task_shape/04_1.png' class=''></img></div>\n                <div class='jspsych-image' id='jspsych-image-3' data-choice='3' style='bottom: 0;  right: 0;'><img style=\"width: 100%; height: 100%;\" src='../static/human_exp_images/task_shape/04_2.png' class=''></img></div>\n\n        </div>","response":null,"trial_type":"html-keyboard-response","trial_index":37,"time_elapsed":88717,"internal_node_id":"0.0-7.0-3.4"},{"rt":null,"trial_type":"image-click","trial_index":38,"time_elapsed":89222,"internal_node_id":"0.0-7.0-0.5"},{"rt":2180,"response":2,"all_choices":["../static/human_exp_images/task_shape/05_2.png","../static/human_exp_images/task_shape/05_0.png","../static/human_exp_images/task_shape/05_3.png","../static/human_exp_images/task_shape/05_1.png"],"task":"response","correct_response":2,"shuffled_array":[2,0,3,1],"catch_trial":false,"trial_type":"image-click","trial_index":39,"time_elapsed":91403,"internal_node_id":"0.0-7.0-1.5","mouse_tracking_data":[{"x":1050,"y":479,"t":2,"event":"mousemove"},{"x":1033,"y":471,"t":15,"event":"mousemove"},{"x":1013,"y":462,"t":31,"event":"mousemove"},{"x":1004,"y":459,"t":49,"event":"mousemove"},{"x":997,"y":457,"t":64,"event":"mousemove"},{"x":987,"y":457,"t":82,"event":"mousemove"},{"x":979,"y":456,"t":98,"event":"mousemove"},{"x":973,"y":454,"t":115,"event":"mousemove"},{"x":970,"y":454,"t":131,"event":"mousemove"},{"x":968,"y":454,"t":149,"event":"mousemove"},{"x":967,"y":454,"t":165,"event":"mousemove"},{"x":965,"y":452,"t":182,"event":"mousemove"},{"x":965,"y":450,"t":198,"event":"mousemove"},{"x":965,"y":449,"t":323,"event":"mousemove"},{"x":965,"y":447,"t":347,"event":"mousemove"},{"x":965,"y":445,"t":357,"event":"mousemove"},{"x":965,"y":444,"t":369,"event":"mousemove"},{"x":965,"y":442,"t":375,"event":"mousemove"},{"x":965,"y":440,"t":384,"event":"mousemove"},{"x":965,"y":438,"t":394,"event":"mousemove"},{"x":965,"y":437,"t":411,"event":"mousemove"},{"x":965,"y":435,"t":420,"event":"mousemove"},{"x":965,"y":433,"t":440,"event":"mousemove"},{"x":967,"y":433,"t":462,"event":"mousemove"},{"x":967,"y":432,"t":466,"event":"mousemove"},{"x":968,"y":432,"t":468,"event":"mousemove"},{"x":970,"y":432,"t":484,"event":"mousemove"},{"x":973,"y":430,"t":501,"event":"mousemove"},{"x":977,"y":428,"t":518,"event":"mousemove"},{"x":977,"y":427,"t":535,"event":"mousemove"},{"x":979,"y":427,"t":551,"event":"mousemove"},{"x":980,"y":427,"t":568,"event":"mousemove"},{"x":982,"y":427,"t":584,"event":"mousemove"},{"x":984,"y":427,"t":720,"event":"mousemove"},{"x":982,"y":427,"t":1699,"event":"mousemove"},{"x":979,"y":427,"t":1706,"event":"mousemove"},{"x":977,"y":427,"t":1708,"event":"mousemove"},{"x":974,"y":428,"t":1714,"event":"mousemove"},{"x":972,"y":430,"t":1718,"event":"mousemove"},{"x":968,"y":432,"t":1723,"event":"mousemove"},{"x":967,"y":433,"t":1724,"event":"mousemove"},{"x":960,"y":438,"t":1740,"event":"mousemove"},{"x":948,"y":449,"t":1757,"event":"mousemove"},{"x":934,"y":459,"t":1774,"event":"mousemove"},{"x":926,"y":469,"t":1791,"event":"mousemove"},{"x":919,"y":476,"t":1807,"event":"mousemove"},{"x":912,"y":481,"t":1823,"event":"mousemove"},{"x":907,"y":485,"t":1840,"event":"mousemove"},{"x":898,"y":490,"t":1857,"event":"mousemove"},{"x":892,"y":495,"t":1874,"event":"mousemove"},{"x":885,"y":498,"t":1890,"event":"mousemove"},{"x":878,"y":503,"t":1908,"event":"mousemove"},{"x":869,"y":507,"t":1923,"event":"mousemove"},{"x":864,"y":512,"t":1941,"event":"mousemove"},{"x":854,"y":520,"t":1957,"event":"mousemove"},{"x":846,"y":531,"t":1974,"event":"mousemove"},{"x":835,"y":539,"t":1990,"event":"mousemove"},{"x":825,"y":551,"t":2007,"event":"mousemove"},{"x":818,"y":560,"t":2023,"event":"mousemove"},{"x":811,"y":567,"t":2041,"event":"mousemove"},{"x":806,"y":577,"t":2057,"event":"mousemove"},{"x":799,"y":585,"t":2074,"event":"mousemove"},{"x":794,"y":594,"t":2091,"event":"mousemove"},{"x":793,"y":601,"t":2107,"event":"mousemove"},{"x":789,"y":606,"t":2124,"event":"mousemove"},{"x":787,"y":609,"t":2141,"event":"mousemove"},{"x":787,"y":613,"t":2158,"event":"mousemove"}],"mouse_tracking_targets":{},"correct":true},{"rt":1329,"stimulus":"<p>How confident are you about your choice ?</p>","slider_start":50,"response":88,"trial_type":"html-slider-response","trial_index":40,"time_elapsed":92735,"internal_node_id":"0.0-7.0-2.5"},{"rt":null,"stimulus":"\n        <div id='jspsych-image' style='position: relative; width: min(80vw, 80vh); height: min(80vw, 80vh);'>\n                \n                <div style='position: absolute; top: 40%; left: 30%; bottom: 40%; right: 30%;'><h1 style='font-size: 60px; color: green;'>Correct!</h1></div>\n                \n                <div class='jspsych-image' id='jspsych-image-0' data-choice='0' style='top: 0;     left: 0;'><img style=\"width: 100%; height: 100%;\" src='../static/human_exp_images/task_shape/05_2.png' class=''></img></div>\n                <div class='jspsych-image' id='jspsych-image-1' data-choice='1' style='top: 0;     right: 0;'><img style=\"width: 100%; height: 100%;\" src='../static/human_exp_images/task_shape/05_0.png' class=''></img></div>\n                <div class='jspsych-image' id='jspsych-image-2' data-choice='2' style='bottom: 0;  left: 0;'><img style=\"width: 100%; height: 100%;\" src='../static/human_exp_images/task_shape/05_3.png' class='correct-choice'></img></div>\n                <div class='jspsych-image' id='jspsych-image-3' data-choice='3' style='bottom: 0;  right: 0;'><img style=\"width: 100%; height: 100%;\" src='../static/human_exp_images/task_shape/05_1.png' class=''></img></div>\n\n        </div>","response":null,"trial_type":"html-keyboard-response","trial_index":41,"time_elapsed":94239,"internal_node_id":"0.0-7.0-3.5"},{"rt":null,"trial_type":"image-click","trial_index":42,"time_elapsed":94872,"internal_node_id":"0.0-7.0-0.6"},{"rt":2134,"response":2,"all_choices":["../static/human_exp_images/task_shape/05_2.png","../static/human_exp_images/task_shape/05_0.png","../static/human_exp_images/task_shape/05_3.png","../static/human_exp_images/task_shape/05_1.png"],"task":"response","correct_response":2,"shuffled_array":[2,0,3,1],"catch_trial":true,"trial_type":"image-click","trial_index":43,"time_elapsed":97006,"internal_node_id":"0.0-7.0-1.6","mouse_tracking_data":[{"x":1044,"y":482,"t":0,"event":"mousemove"},{"x":1036,"y":482,"t":17,"event":"mousemove"},{"x":1025,"y":482,"t":33,"event":"mousemove"},{"x":1022,"y":482,"t":49,"event":"mousemove"},{"x":1020,"y":482,"t":67,"event":"mousemove"},{"x":1019,"y":482,"t":1374,"event":"mousemove"},{"x":1017,"y":482,"t":1401,"event":"mousemove"},{"x":1015,"y":482,"t":1420,"event":"mousemove"},{"x":1014,"y":482,"t":1485,"event":"mousemove"},{"x":1012,"y":482,"t":1789,"event":"mousemove"},{"x":1011,"y":482,"t":1799,"event":"mousemove"},{"x":1009,"y":482,"t":1807,"event":"mousemove"},{"x":1007,"y":482,"t":1815,"event":"mousemove"},{"x":1005,"y":482,"t":1819,"event":"mousemove"},{"x":1002,"y":482,"t":1824,"event":"mousemove"},{"x":1000,"y":482,"t":1826,"event":"mousemove"},{"x":990,"y":482,"t":1842,"event":"mousemove"},{"x":980,"y":482,"t":1859,"event":"mousemove"},{"x":961,"y":489,"t":1875,"event":"mousemove"},{"x":938,"y":508,"t":1893,"event":"mousemove"},{"x":913,"y":531,"t":1909,"event":"mousemove"},{"x":881,"y":558,"t":1925,"event":"mousemove"},{"x":869,"y":567,"t":1942,"event":"mousemove"},{"x":846,"y":583,"t":1959,"event":"mousemove"},{"x":825,"y":598,"t":1976,"event":"mousemove"},{"x":807,"y":608,"t":1992,"event":"mousemove"},{"x":796,"y":617,"t":2010,"event":"mousemove"},{"x":793,"y":620,"t":2025,"event":"mousemove"},{"x":791,"y":622,"t":2043,"event":"mousemove"}],"mouse_tracking_targets":{},"correct":true},{"rt":833,"stimulus":"<p>How confident are you about your choice ?</p>","slider_start":50,"response":95,"trial_type":"html-slider-response","trial_index":44,"time_elapsed":97842,"internal_node_id":"0.0-7.0-2.6"},{"rt":null,"stimulus":"\n        <div id='jspsych-image' style='position: relative; width: min(80vw, 80vh); height: min(80vw, 80vh);'>\n                \n                <div style='position: absolute; top: 40%; left: 30%; bottom: 40%; right: 30%;'><h1 style='font-size: 60px; color: green;'>Correct!</h1></div>\n                \n                <div class='jspsych-image' id='jspsych-image-0' data-choice='0' style='top: 0;     left: 0;'><img style=\"width: 100%; height: 100%;\" src='../static/human_exp_images/task_shape/05_2.png' class=''></img></div>\n                <div class='jspsych-image' id='jspsych-image-1' data-choice='1' style='top: 0;     right: 0;'><img style=\"width: 100%; height: 100%;\" src='../static/human_exp_images/task_shape/05_0.png' class=''></img></div>\n                <div class='jspsych-image' id='jspsych-image-2' data-choice='2' style='bottom: 0;  left: 0;'><img style=\"width: 100%; height: 100%;\" src='../static/human_exp_images/task_shape/05_3.png' class='correct-choice'></img></div>\n                <div class='jspsych-image' id='jspsych-image-3' data-choice='3' style='bottom: 0;  right: 0;'><img style=\"width: 100%; height: 100%;\" src='../static/human_exp_images/task_shape/05_1.png' class=''></img></div>\n\n        </div>","response":null,"trial_type":"html-keyboard-response","trial_index":45,"time_elapsed":99345,"internal_node_id":"0.0-7.0-3.6"},{"rt":null,"trial_type":"image-click","trial_index":46,"time_elapsed":99747,"internal_node_id":"0.0-7.0-0.7"},{"rt":1449,"response":0,"all_choices":["../static/human_exp_images/task_shape/06_3.png","../static/human_exp_images/task_shape/06_0.png","../static/human_exp_images/task_shape/06_1.png","../static/human_exp_images/task_shape/06_2.png"],"task":"response","correct_response":0,"shuffled_array":[3,0,1,2],"catch_trial":false,"trial_type":"image-click","trial_index":47,"time_elapsed":101199,"internal_node_id":"0.0-7.0-1.7","mouse_tracking_data":[{"x":1041,"y":512,"t":1,"event":"mousemove"},{"x":1016,"y":512,"t":14,"event":"mousemove"},{"x":987,"y":512,"t":31,"event":"mousemove"},{"x":961,"y":512,"t":47,"event":"mousemove"},{"x":946,"y":510,"t":64,"event":"mousemove"},{"x":937,"y":505,"t":81,"event":"mousemove"},{"x":934,"y":504,"t":97,"event":"mousemove"},{"x":932,"y":504,"t":115,"event":"mousemove"},{"x":932,"y":502,"t":217,"event":"mousemove"},{"x":932,"y":500,"t":1074,"event":"mousemove"},{"x":932,"y":499,"t":1082,"event":"mousemove"},{"x":932,"y":497,"t":1090,"event":"mousemove"},{"x":932,"y":495,"t":1093,"event":"mousemove"},{"x":932,"y":490,"t":1100,"event":"mousemove"},{"x":932,"y":487,"t":1103,"event":"mousemove"},{"x":929,"y":480,"t":1108,"event":"mousemove"},{"x":925,"y":478,"t":1113,"event":"mousemove"},{"x":919,"y":469,"t":1119,"event":"mousemove"},{"x":914,"y":463,"t":1119,"event":"mousemove"},{"x":903,"y":450,"t":1128,"event":"mousemove"},{"x":898,"y":444,"t":1128,"event":"mousemove"},{"x":881,"y":425,"t":1145,"event":"mousemove"},{"x":857,"y":392,"t":1162,"event":"mousemove"},{"x":845,"y":367,"t":1178,"event":"mousemove"},{"x":836,"y":347,"t":1195,"event":"mousemove"},{"x":830,"y":337,"t":1212,"event":"mousemove"},{"x":826,"y":330,"t":1228,"event":"mousemove"},{"x":818,"y":318,"t":1245,"event":"mousemove"},{"x":814,"y":315,"t":1261,"event":"mousemove"},{"x":809,"y":310,"t":1278,"event":"mousemove"},{"x":806,"y":306,"t":1295,"event":"mousemove"},{"x":801,"y":301,"t":1312,"event":"mousemove"},{"x":799,"y":300,"t":1329,"event":"mousemove"},{"x":797,"y":298,"t":1346,"event":"mousemove"},{"x":796,"y":296,"t":1362,"event":"mousemove"},{"x":796,"y":294,"t":1394,"event":"mousemove"}],"mouse_tracking_targets":{},"correct":true},{"rt":1265,"stimulus":"<p>How confident are you about your choice ?</p>","slider_start":50,"response":87,"trial_type":"html-slider-response","trial_index":48,"time_elapsed":102466,"internal_node_id":"0.0-7.0-2.7"},{"rt":null,"stimulus":"\n        <div id='jspsych-image' style='position: relative; width: min(80vw, 80vh); height: min(80vw, 80vh);'>\n                \n                <div style='position: absolute; top: 40%; left: 30%; bottom: 40%; right: 30%;'><h1 style='font-size: 60px; color: green;'>Correct!</h1></div>\n                \n                <div class='jspsych-image' id='jspsych-image-0' data-choice='0' style='top: 0;     left: 0;'><img style=\"width: 100%; height: 100%;\" src='../static/human_exp_images/task_shape/06_3.png' class='correct-choice'></img></div>\n                <div class='jspsych-image' id='jspsych-image-1' data-choice='1' style='top: 0;     right: 0;'><img style=\"width: 100%; height: 100%;\" src='../static/human_exp_images/task_shape/06_0.png' class=''></img></div>\n                <div class='jspsych-image' id='jspsych-image-2' data-choice='2' style='bottom: 0;  left: 0;'><img style=\"width: 100%; height: 100%;\" src='../static/human_exp_images/task_shape/06_1.png' class=''></img></div>\n                <div class='jspsych-image' id='jspsych-image-3' data-choice='3' style='bottom: 0;  right: 0;'><img style=\"width: 100%; height: 100%;\" src='../static/human_exp_images/task_shape/06_2.png' class=''></img></div>\n\n        </div>","response":null,"trial_type":"html-keyboard-response","trial_index":49,"time_elapsed":103966,"internal_node_id":"0.0-7.0-3.7"},{"rt":null,"trial_type":"image-click","trial_index":50,"time_elapsed":103973,"internal_node_id":"0.0-7.0-0.8"},{"rt":1445,"response":0,"all_choices":["../static/human_exp_images/task_shape/07_3.png","../static/human_exp_images/task_shape/07_0.png","../static/human_exp_images/task_shape/07_1.png","../static/human_exp_images/task_shape/07_2.png"],"task":"response","correct_response":0,"shuffled_array":[3,0,1,2],"catch_trial":false,"trial_type":"image-click","trial_index":51,"time_elapsed":105419,"internal_node_id":"0.0-7.0-1.8","mouse_tracking_data":[{"x":1004,"y":469,"t":33,"event":"mousemove"},{"x":1003,"y":468,"t":53,"event":"mousemove"},{"x":1001,"y":468,"t":71,"event":"mousemove"},{"x":999,"y":468,"t":82,"event":"mousemove"},{"x":997,"y":468,"t":100,"event":"mousemove"},{"x":997,"y":469,"t":972,"event":"mousemove"},{"x":997,"y":471,"t":980,"event":"mousemove"},{"x":997,"y":472,"t":1000,"event":"mousemove"},{"x":997,"y":474,"t":1026,"event":"mousemove"},{"x":996,"y":474,"t":1046,"event":"mousemove"},{"x":994,"y":474,"t":1062,"event":"mousemove"},{"x":991,"y":474,"t":1072,"event":"mousemove"},{"x":987,"y":474,"t":1081,"event":"mousemove"},{"x":985,"y":474,"t":1083,"event":"mousemove"},{"x":977,"y":474,"t":1100,"event":"mousemove"},{"x":965,"y":469,"t":1117,"event":"mousemove"},{"x":956,"y":462,"t":1133,"event":"mousemove"},{"x":946,"y":452,"t":1150,"event":"mousemove"},{"x":931,"y":441,"t":1166,"event":"mousemove"},{"x":912,"y":425,"t":1183,"event":"mousemove"},{"x":892,"y":409,"t":1199,"event":"mousemove"},{"x":873,"y":394,"t":1216,"event":"mousemove"},{"x":856,"y":384,"t":1234,"event":"mousemove"},{"x":830,"y":366,"t":1250,"event":"mousemove"},{"x":810,"y":353,"t":1267,"event":"mousemove"},{"x":796,"y":342,"t":1283,"event":"mousemove"},{"x":783,"y":333,"t":1300,"event":"mousemove"},{"x":777,"y":329,"t":1316,"event":"mousemove"},{"x":773,"y":324,"t":1333,"event":"mousemove"},{"x":772,"y":322,"t":1349,"event":"mousemove"},{"x":770,"y":322,"t":1367,"event":"mousemove"},{"x":768,"y":320,"t":1384,"event":"mousemove"}],"mouse_tracking_targets":{},"correct":true},{"rt":1139,"stimulus":"<p>How confident are you about your choice ?</p>","slider_start":50,"response":99,"trial_type":"html-slider-response","trial_index":52,"time_elapsed":106559,"internal_node_id":"0.0-7.0-2.8"},{"rt":null,"stimulus":"\n        <div id='jspsych-image' style='position: relative; width: min(80vw, 80vh); height: min(80vw, 80vh);'>\n                \n                <div style='position: absolute; top: 40%; left: 30%; bottom: 40%; right: 30%;'><h1 style='font-size: 60px; color: green;'>Correct!</h1></div>\n                \n                <div class='jspsych-image' id='jspsych-image-0' data-choice='0' style='top: 0;     left: 0;'><img style=\"width: 100%; height: 100%;\" src='../static/human_exp_images/task_shape/07_3.png' class='correct-choice'></img></div>\n                <div class='jspsych-image' id='jspsych-image-1' data-choice='1' style='top: 0;     right: 0;'><img style=\"width: 100%; height: 100%;\" src='../static/human_exp_images/task_shape/07_0.png' class=''></img></div>\n                <div class='jspsych-image' id='jspsych-image-2' data-choice='2' style='bottom: 0;  left: 0;'><img style=\"width: 100%; height: 100%;\" src='../static/human_exp_images/task_shape/07_1.png' class=''></img></div>\n                <div class='jspsych-image' id='jspsych-image-3' data-choice='3' style='bottom: 0;  right: 0;'><img style=\"width: 100%; height: 100%;\" src='../static/human_exp_images/task_shape/07_2.png' class=''></img></div>\n\n        </div>","response":null,"trial_type":"html-keyboard-response","trial_index":53,"time_elapsed":108061,"internal_node_id":"0.0-7.0-3.8"},{"rt":null,"trial_type":"image-click","trial_index":54,"time_elapsed":108063,"internal_node_id":"0.0-7.0-0.9"},{"rt":2992,"response":0,"all_choices":["../static/human_exp_images/task_shape/08_3.png","../static/human_exp_images/task_shape/08_1.png","../static/human_exp_images/task_shape/08_0.png","../static/human_exp_images/task_shape/08_2.png"],"task":"response","correct_response":0,"shuffled_array":[3,1,0,2],"catch_trial":false,"trial_type":"image-click","trial_index":55,"time_elapsed":111055,"internal_node_id":"0.0-7.0-1.9","mouse_tracking_data":[{"x":958,"y":470,"t":2388,"event":"mousemove"},{"x":958,"y":468,"t":2390,"event":"mousemove"},{"x":949,"y":453,"t":2406,"event":"mousemove"},{"x":938,"y":441,"t":2424,"event":"mousemove"},{"x":933,"y":436,"t":2440,"event":"mousemove"},{"x":930,"y":431,"t":2457,"event":"mousemove"},{"x":928,"y":429,"t":2472,"event":"mousemove"},{"x":926,"y":427,"t":2490,"event":"mousemove"},{"x":925,"y":427,"t":2507,"event":"mousemove"},{"x":923,"y":427,"t":2625,"event":"mousemove"},{"x":923,"y":425,"t":2635,"event":"mousemove"},{"x":921,"y":425,"t":2636,"event":"mousemove"},{"x":916,"y":420,"t":2652,"event":"mousemove"},{"x":909,"y":413,"t":2669,"event":"mousemove"},{"x":897,"y":401,"t":2686,"event":"mousemove"},{"x":887,"y":390,"t":2702,"event":"mousemove"},{"x":878,"y":378,"t":2718,"event":"mousemove"},{"x":867,"y":364,"t":2736,"event":"mousemove"},{"x":856,"y":354,"t":2752,"event":"mousemove"},{"x":849,"y":347,"t":2769,"event":"mousemove"},{"x":841,"y":333,"t":2787,"event":"mousemove"},{"x":832,"y":321,"t":2802,"event":"mousemove"},{"x":820,"y":303,"t":2819,"event":"mousemove"},{"x":815,"y":294,"t":2836,"event":"mousemove"},{"x":808,"y":286,"t":2852,"event":"mousemove"},{"x":807,"y":283,"t":2868,"event":"mousemove"},{"x":805,"y":279,"t":2886,"event":"mousemove"},{"x":805,"y":277,"t":2902,"event":"mousemove"},{"x":803,"y":277,"t":2955,"event":"mousemove"}],"mouse_tracking_targets":{},"correct":true},{"rt":2461,"stimulus":"<p>How confident are you about your choice ?</p>","slider_start":50,"response":100,"trial_type":"html-slider-response","trial_index":56,"time_elapsed":113518,"internal_node_id":"0.0-7.0-2.9"},{"rt":null,"stimulus":"\n        <div id='jspsych-image' style='position: relative; width: min(80vw, 80vh); height: min(80vw, 80vh);'>\n                \n                <div style='position: absolute; top: 40%; left: 30%; bottom: 40%; right: 30%;'><h1 style='font-size: 60px; color: green;'>Correct!</h1></div>\n                \n                <div class='jspsych-image' id='jspsych-image-0' data-choice='0' style='top: 0;     left: 0;'><img style=\"width: 100%; height: 100%;\" src='../static/human_exp_images/task_shape/08_3.png' class='correct-choice'></img></div>\n                <div class='jspsych-image' id='jspsych-image-1' data-choice='1' style='top: 0;     right: 0;'><img style=\"width: 100%; height: 100%;\" src='../static/human_exp_images/task_shape/08_1.png' class=''></img></div>\n                <div class='jspsych-image' id='jspsych-image-2' data-choice='2' style='bottom: 0;  left: 0;'><img style=\"width: 100%; height: 100%;\" src='../static/human_exp_images/task_shape/08_0.png' class=''></img></div>\n                <div class='jspsych-image' id='jspsych-image-3' data-choice='3' style='bottom: 0;  right: 0;'><img style=\"width: 100%; height: 100%;\" src='../static/human_exp_images/task_shape/08_2.png' class=''></img></div>\n\n        </div>","response":null,"trial_type":"html-keyboard-response","trial_index":57,"time_elapsed":115019,"internal_node_id":"0.0-7.0-3.9"},{"rt":null,"trial_type":"image-click","trial_index":58,"time_elapsed":115842,"internal_node_id":"0.0-7.0-0.10"},{"rt":1709,"response":2,"all_choices":["../static/human_exp_images/task_shape/09_1.png","../static/human_exp_images/task_shape/09_0.png","../static/human_exp_images/task_shape/09_3.png","../static/human_exp_images/task_shape/09_2.png"],"task":"response","correct_response":2,"shuffled_array":[1,0,3,2],"catch_trial":false,"trial_type":"image-click","trial_index":59,"time_elapsed":117554,"internal_node_id":"0.0-7.0-1.10","mouse_tracking_data":[{"x":1049,"y":460,"t":1,"event":"mousemove"},{"x":1042,"y":458,"t":13,"event":"mousemove"},{"x":1037,"y":457,"t":30,"event":"mousemove"},{"x":1030,"y":455,"t":46,"event":"mousemove"},{"x":1025,"y":455,"t":63,"event":"mousemove"},{"x":1022,"y":455,"t":81,"event":"mousemove"},{"x":1018,"y":455,"t":97,"event":"mousemove"},{"x":1017,"y":455,"t":114,"event":"mousemove"},{"x":1013,"y":455,"t":130,"event":"mousemove"},{"x":1010,"y":455,"t":148,"event":"mousemove"},{"x":1003,"y":455,"t":163,"event":"mousemove"},{"x":998,"y":455,"t":181,"event":"mousemove"},{"x":993,"y":455,"t":198,"event":"mousemove"},{"x":991,"y":455,"t":213,"event":"mousemove"},{"x":989,"y":455,"t":230,"event":"mousemove"},{"x":988,"y":455,"t":247,"event":"mousemove"},{"x":988,"y":453,"t":595,"event":"mousemove"},{"x":988,"y":455,"t":1348,"event":"mousemove"},{"x":988,"y":457,"t":1357,"event":"mousemove"},{"x":988,"y":458,"t":1368,"event":"mousemove"},{"x":988,"y":462,"t":1371,"event":"mousemove"},{"x":984,"y":467,"t":1381,"event":"mousemove"},{"x":981,"y":469,"t":1383,"event":"mousemove"},{"x":965,"y":482,"t":1398,"event":"mousemove"},{"x":950,"y":495,"t":1416,"event":"mousemove"},{"x":928,"y":514,"t":1432,"event":"mousemove"},{"x":912,"y":529,"t":1449,"event":"mousemove"},{"x":899,"y":540,"t":1465,"event":"mousemove"},{"x":889,"y":552,"t":1483,"event":"mousemove"},{"x":877,"y":564,"t":1499,"event":"mousemove"},{"x":866,"y":576,"t":1516,"event":"mousemove"},{"x":847,"y":601,"t":1533,"event":"mousemove"},{"x":828,"y":618,"t":1548,"event":"mousemove"},{"x":806,"y":641,"t":1565,"event":"mousemove"},{"x":801,"y":648,"t":1582,"event":"mousemove"},{"x":799,"y":650,"t":1600,"event":"mousemove"},{"x":797,"y":650,"t":1616,"event":"mousemove"}],"mouse_tracking_targets":{},"correct":true},{"rt":968,"stimulus":"<p>How confident are you about your choice ?</p>","slider_start":50,"response":93,"trial_type":"html-slider-response","trial_index":60,"time_elapsed":118525,"internal_node_id":"0.0-7.0-2.10"},{"rt":null,"stimulus":"\n        <div id='jspsych-image' style='position: relative; width: min(80vw, 80vh); height: min(80vw, 80vh);'>\n                \n                <div style='position: absolute; top: 40%; left: 30%; bottom: 40%; right: 30%;'><h1 style='font-size: 60px; color: green;'>Correct!</h1></div>\n                \n                <div class='jspsych-image' id='jspsych-image-0' data-choice='0' style='top: 0;     left: 0;'><img style=\"width: 100%; height: 100%;\" src='../static/human_exp_images/task_shape/09_1.png' class=''></img></div>\n                <div class='jspsych-image' id='jspsych-image-1' data-choice='1' style='top: 0;     right: 0;'><img style=\"width: 100%; height: 100%;\" src='../static/human_exp_images/task_shape/09_0.png' class=''></img></div>\n                <div class='jspsych-image' id='jspsych-image-2' data-choice='2' style='bottom: 0;  left: 0;'><img style=\"width: 100%; height: 100%;\" src='../static/human_exp_images/task_shape/09_3.png' class='correct-choice'></img></div>\n                <div class='jspsych-image' id='jspsych-image-3' data-choice='3' style='bottom: 0;  right: 0;'><img style=\"width: 100%; height: 100%;\" src='../static/human_exp_images/task_shape/09_2.png' class=''></img></div>\n\n        </div>","response":null,"trial_type":"html-keyboard-response","trial_index":61,"time_elapsed":120027,"internal_node_id":"0.0-7.0-3.10"},{"rt":null,"trial_type":"image-click","trial_index":62,"time_elapsed":120029,"internal_node_id":"0.0-7.0-0.11"},{"rt":6950,"response":3,"all_choices":["../static/human_exp_images/task_shape/10_2.png","../static/human_exp_images/task_shape/10_0.png","../static/human_exp_images/task_shape/10_1.png","../static/human_exp_images/task_shape/10_3.png"],"task":"response","correct_response":3,"shuffled_array":[2,0,1,3],"catch_trial":false,"trial_type":"image-click","trial_index":63,"time_elapsed":126982,"internal_node_id":"0.0-7.0-1.11","mouse_tracking_data":[{"x":1016,"y":494,"t":448,"event":"mousemove"},{"x":1016,"y":496,"t":465,"event":"mousemove"},{"x":1016,"y":498,"t":511,"event":"mousemove"},{"x":1016,"y":500,"t":570,"event":"mousemove"},{"x":1018,"y":501,"t":681,"event":"mousemove"},{"x":1019,"y":501,"t":690,"event":"mousemove"},{"x":1021,"y":501,"t":701,"event":"mousemove"},{"x":1023,"y":501,"t":709,"event":"mousemove"},{"x":1024,"y":501,"t":718,"event":"mousemove"},{"x":1026,"y":501,"t":1110,"event":"mousemove"},{"x":1028,"y":501,"t":1163,"event":"mousemove"},{"x":1029,"y":501,"t":1183,"event":"mousemove"},{"x":1031,"y":501,"t":1264,"event":"mousemove"},{"x":1033,"y":501,"t":1281,"event":"mousemove"},{"x":1034,"y":501,"t":1300,"event":"mousemove"},{"x":1036,"y":501,"t":2160,"event":"mousemove"},{"x":1036,"y":503,"t":2197,"event":"mousemove"},{"x":1038,"y":503,"t":2214,"event":"mousemove"},{"x":1039,"y":503,"t":2260,"event":"mousemove"},{"x":1041,"y":503,"t":2278,"event":"mousemove"},{"x":1041,"y":505,"t":2287,"event":"mousemove"},{"x":1043,"y":505,"t":2298,"event":"mousemove"},{"x":1043,"y":506,"t":2305,"event":"mousemove"},{"x":1045,"y":506,"t":2324,"event":"mousemove"},{"x":1046,"y":506,"t":2342,"event":"mousemove"},{"x":1048,"y":508,"t":2370,"event":"mousemove"},{"x":1050,"y":510,"t":2389,"event":"mousemove"},{"x":1051,"y":510,"t":2397,"event":"mousemove"},{"x":1051,"y":511,"t":2406,"event":"mousemove"},{"x":1053,"y":511,"t":2407,"event":"mousemove"},{"x":1055,"y":511,"t":2423,"event":"mousemove"},{"x":1056,"y":513,"t":2440,"event":"mousemove"},{"x":1058,"y":515,"t":2457,"event":"mousemove"},{"x":1060,"y":517,"t":2474,"event":"mousemove"},{"x":1065,"y":518,"t":2490,"event":"mousemove"},{"x":1070,"y":523,"t":2507,"event":"mousemove"},{"x":1079,"y":527,"t":2523,"event":"mousemove"},{"x":1084,"y":530,"t":2540,"event":"mousemove"},{"x":1087,"y":534,"t":2557,"event":"mousemove"},{"x":1091,"y":535,"t":2573,"event":"mousemove"},{"x":1092,"y":535,"t":2597,"event":"mousemove"},{"x":1094,"y":537,"t":2642,"event":"mousemove"},{"x":1096,"y":539,"t":2660,"event":"mousemove"},{"x":1097,"y":539,"t":2687,"event":"mousemove"},{"x":1097,"y":541,"t":2705,"event":"mousemove"},{"x":1099,"y":541,"t":2714,"event":"mousemove"},{"x":1101,"y":541,"t":2784,"event":"mousemove"},{"x":1101,"y":542,"t":2793,"event":"mousemove"},{"x":1103,"y":542,"t":2812,"event":"mousemove"},{"x":1103,"y":544,"t":2820,"event":"mousemove"},{"x":1104,"y":544,"t":2829,"event":"mousemove"},{"x":1104,"y":546,"t":2839,"event":"mousemove"},{"x":1106,"y":546,"t":2858,"event":"mousemove"},{"x":1106,"y":547,"t":2867,"event":"mousemove"},{"x":1108,"y":547,"t":2895,"event":"mousemove"},{"x":1108,"y":549,"t":2904,"event":"mousemove"},{"x":1109,"y":549,"t":2912,"event":"mousemove"},{"x":1109,"y":551,"t":2914,"event":"mousemove"},{"x":1111,"y":552,"t":2930,"event":"mousemove"},{"x":1115,"y":556,"t":2948,"event":"mousemove"},{"x":1118,"y":561,"t":2964,"event":"mousemove"},{"x":1121,"y":564,"t":2981,"event":"mousemove"},{"x":1121,"y":566,"t":2997,"event":"mousemove"},{"x":1123,"y":568,"t":3014,"event":"mousemove"},{"x":1123,"y":570,"t":3029,"event":"mousemove"},{"x":1123,"y":571,"t":3046,"event":"mousemove"},{"x":1125,"y":571,"t":3063,"event":"mousemove"},{"x":1125,"y":573,"t":3080,"event":"mousemove"},{"x":1126,"y":573,"t":3097,"event":"mousemove"},{"x":1126,"y":575,"t":3239,"event":"mousemove"},{"x":1128,"y":575,"t":3277,"event":"mousemove"},{"x":1128,"y":576,"t":3289,"event":"mousemove"},{"x":1130,"y":576,"t":3296,"event":"mousemove"},{"x":1130,"y":578,"t":3305,"event":"mousemove"},{"x":1132,"y":580,"t":3315,"event":"mousemove"},{"x":1132,"y":581,"t":3332,"event":"mousemove"},{"x":1133,"y":581,"t":3341,"event":"mousemove"},{"x":1133,"y":583,"t":3361,"event":"mousemove"},{"x":1135,"y":583,"t":3416,"event":"mousemove"},{"x":1137,"y":585,"t":3452,"event":"mousemove"},{"x":1137,"y":587,"t":3461,"event":"mousemove"},{"x":1138,"y":587,"t":3470,"event":"mousemove"},{"x":1138,"y":588,"t":3472,"event":"mousemove"},{"x":1140,"y":588,"t":3489,"event":"mousemove"},{"x":1140,"y":590,"t":3497,"event":"mousemove"},{"x":1140,"y":592,"t":3515,"event":"mousemove"},{"x":1142,"y":593,"t":3533,"event":"mousemove"},{"x":1142,"y":595,"t":3552,"event":"mousemove"}],"mouse_tracking_targets":{},"correct":true},{"rt":1231,"stimulus":"<p>How confident are you about your choice ?</p>","slider_start":50,"response":100,"trial_type":"html-slider-response","trial_index":64,"time_elapsed":128213,"internal_node_id":"0.0-7.0-2.11"},{"rt":null,"stimulus":"\n        <div id='jspsych-image' style='position: relative; width: min(80vw, 80vh); height: min(80vw, 80vh);'>\n                \n                <div style='position: absolute; top: 40%; left: 30%; bottom: 40%; right: 30%;'><h1 style='font-size: 60px; color: green;'>Correct!</h1></div>\n                \n                <div class='jspsych-image' id='jspsych-image-0' data-choice='0' style='top: 0;     left: 0;'><img style=\"width: 100%; height: 100%;\" src='../static/human_exp_images/task_shape/10_2.png' class=''></img></div>\n                <div class='jspsych-image' id='jspsych-image-1' data-choice='1' style='top: 0;     right: 0;'><img style=\"width: 100%; height: 100%;\" src='../static/human_exp_images/task_shape/10_0.png' class=''></img></div>\n                <div class='jspsych-image' id='jspsych-image-2' data-choice='2' style='bottom: 0;  left: 0;'><img style=\"width: 100%; height: 100%;\" src='../static/human_exp_images/task_shape/10_1.png' class=''></img></div>\n                <div class='jspsych-image' id='jspsych-image-3' data-choice='3' style='bottom: 0;  right: 0;'><img style=\"width: 100%; height: 100%;\" src='../static/human_exp_images/task_shape/10_3.png' class='correct-choice'></img></div>\n\n        </div>","response":null,"trial_type":"html-keyboard-response","trial_index":65,"time_elapsed":129716,"internal_node_id":"0.0-7.0-3.11"},{"rt":null,"trial_type":"image-click","trial_index":66,"time_elapsed":130290,"internal_node_id":"0.0-7.0-0.12"},{"rt":1703,"response":0,"all_choices":["../static/human_exp_images/task_shape/11_3.png","../static/human_exp_images/task_shape/11_1.png","../static/human_exp_images/task_shape/11_0.png","../static/human_exp_images/task_shape/11_2.png"],"task":"response","correct_response":0,"shuffled_array":[3,1,0,2],"catch_trial":false,"trial_type":"image-click","trial_index":67,"time_elapsed":131994,"internal_node_id":"0.0-7.0-1.12","mouse_tracking_data":[{"x":1044,"y":492,"t":2,"event":"mousemove"},{"x":1032,"y":492,"t":16,"event":"mousemove"},{"x":1025,"y":492,"t":32,"event":"mousemove"},{"x":1020,"y":488,"t":48,"event":"mousemove"},{"x":1016,"y":485,"t":66,"event":"mousemove"},{"x":1015,"y":483,"t":82,"event":"mousemove"},{"x":1009,"y":478,"t":100,"event":"mousemove"},{"x":1008,"y":473,"t":115,"event":"mousemove"},{"x":1006,"y":473,"t":132,"event":"mousemove"},{"x":1006,"y":471,"t":165,"event":"mousemove"},{"x":1006,"y":469,"t":229,"event":"mousemove"},{"x":1006,"y":468,"t":256,"event":"mousemove"},{"x":1008,"y":468,"t":314,"event":"mousemove"},{"x":1011,"y":468,"t":319,"event":"mousemove"},{"x":1015,"y":468,"t":328,"event":"mousemove"},{"x":1016,"y":468,"t":338,"event":"mousemove"},{"x":1018,"y":468,"t":340,"event":"mousemove"},{"x":1023,"y":468,"t":356,"event":"mousemove"},{"x":1032,"y":468,"t":373,"event":"mousemove"},{"x":1037,"y":468,"t":390,"event":"mousemove"},{"x":1042,"y":468,"t":407,"event":"mousemove"},{"x":1050,"y":468,"t":423,"event":"mousemove"},{"x":1059,"y":469,"t":440,"event":"mousemove"},{"x":1064,"y":474,"t":456,"event":"mousemove"},{"x":1073,"y":480,"t":473,"event":"mousemove"},{"x":1076,"y":481,"t":489,"event":"mousemove"},{"x":1081,"y":486,"t":507,"event":"mousemove"},{"x":1085,"y":490,"t":523,"event":"mousemove"},{"x":1088,"y":492,"t":540,"event":"mousemove"},{"x":1090,"y":493,"t":556,"event":"mousemove"},{"x":1091,"y":493,"t":573,"event":"mousemove"},{"x":1093,"y":495,"t":590,"event":"mousemove"},{"x":1095,"y":497,"t":607,"event":"mousemove"},{"x":1096,"y":497,"t":623,"event":"mousemove"},{"x":1098,"y":497,"t":711,"event":"mousemove"},{"x":1097,"y":497,"t":1173,"event":"mousemove"},{"x":1093,"y":497,"t":1176,"event":"mousemove"},{"x":1087,"y":489,"t":1181,"event":"mousemove"},{"x":1083,"y":485,"t":1185,"event":"mousemove"},{"x":1075,"y":479,"t":1190,"event":"mousemove"},{"x":1072,"y":473,"t":1191,"event":"mousemove"},{"x":1057,"y":460,"t":1207,"event":"mousemove"},{"x":1036,"y":442,"t":1225,"event":"mousemove"},{"x":1021,"y":429,"t":1241,"event":"mousemove"},{"x":1008,"y":419,"t":1258,"event":"mousemove"},{"x":996,"y":412,"t":1274,"event":"mousemove"},{"x":980,"y":402,"t":1290,"event":"mousemove"},{"x":966,"y":397,"t":1307,"event":"mousemove"},{"x":952,"y":391,"t":1324,"event":"mousemove"},{"x":938,"y":382,"t":1341,"event":"mousemove"},{"x":928,"y":375,"t":1358,"event":"mousemove"},{"x":916,"y":367,"t":1374,"event":"mousemove"},{"x":908,"y":362,"t":1391,"event":"mousemove"},{"x":899,"y":356,"t":1409,"event":"mousemove"},{"x":887,"y":351,"t":1424,"event":"mousemove"},{"x":876,"y":344,"t":1441,"event":"mousemove"},{"x":866,"y":336,"t":1457,"event":"mousemove"},{"x":850,"y":314,"t":1475,"event":"mousemove"},{"x":843,"y":303,"t":1490,"event":"mousemove"},{"x":831,"y":285,"t":1508,"event":"mousemove"},{"x":820,"y":268,"t":1525,"event":"mousemove"},{"x":811,"y":259,"t":1540,"event":"mousemove"},{"x":805,"y":252,"t":1558,"event":"mousemove"},{"x":799,"y":247,"t":1574,"event":"mousemove"},{"x":796,"y":247,"t":1591,"event":"mousemove"},{"x":794,"y":245,"t":1607,"event":"mousemove"},{"x":793,"y":243,"t":1629,"event":"mousemove"},{"x":793,"y":242,"t":1656,"event":"mousemove"}],"mouse_tracking_targets":{},"correct":true},{"rt":9667,"stimulus":"<p>How confident are you about your choice ?</p>","slider_start":50,"response":100,"trial_type":"html-slider-response","trial_index":68,"time_elapsed":141663,"internal_node_id":"0.0-7.0-2.12"},{"rt":null,"stimulus":"\n        <div id='jspsych-image' style='position: relative; width: min(80vw, 80vh); height: min(80vw, 80vh);'>\n                \n                <div style='position: absolute; top: 40%; left: 30%; bottom: 40%; right: 30%;'><h1 style='font-size: 60px; color: green;'>Correct!</h1></div>\n                \n                <div class='jspsych-image' id='jspsych-image-0' data-choice='0' style='top: 0;     left: 0;'><img style=\"width: 100%; height: 100%;\" src='../static/human_exp_images/task_shape/11_3.png' class='correct-choice'></img></div>\n                <div class='jspsych-image' id='jspsych-image-1' data-choice='1' style='top: 0;     right: 0;'><img style=\"width: 100%; height: 100%;\" src='../static/human_exp_images/task_shape/11_1.png' class=''></img></div>\n                <div class='jspsych-image' id='jspsych-image-2' data-choice='2' style='bottom: 0;  left: 0;'><img style=\"width: 100%; height: 100%;\" src='../static/human_exp_images/task_shape/11_0.png' class=''></img></div>\n                <div class='jspsych-image' id='jspsych-image-3' data-choice='3' style='bottom: 0;  right: 0;'><img style=\"width: 100%; height: 100%;\" src='../static/human_exp_images/task_shape/11_2.png' class=''></img></div>\n\n        </div>","response":null,"trial_type":"html-keyboard-response","trial_index":69,"time_elapsed":143169,"internal_node_id":"0.0-7.0-3.12"},{"rt":null,"trial_type":"image-click","trial_index":70,"time_elapsed":143652,"internal_node_id":"0.0-7.0-0.13"},{"rt":3308,"response":0,"all_choices":["../static/human_exp_images/task_shape/12_3.png","../static/human_exp_images/task_shape/12_2.png","../static/human_exp_images/task_shape/12_1.png","../static/human_exp_images/task_shape/12_0.png"],"task":"response","correct_response":0,"shuffled_array":[3,2,1,0],"catch_trial":false,"trial_type":"image-click","trial_index":71,"time_elapsed":146961,"internal_node_id":"0.0-7.0-1.13","mouse_tracking_data":[{"x":1048,"y":463,"t":1,"event":"mousemove"},{"x":1043,"y":463,"t":15,"event":"mousemove"},{"x":1036,"y":461,"t":32,"event":"mousemove"},{"x":1031,"y":460,"t":48,"event":"mousemove"},{"x":1028,"y":460,"t":66,"event":"mousemove"},{"x":1024,"y":460,"t":81,"event":"mousemove"},{"x":1022,"y":460,"t":99,"event":"mousemove"},{"x":1021,"y":460,"t":127,"event":"mousemove"},{"x":1019,"y":460,"t":172,"event":"mousemove"},{"x":1019,"y":458,"t":446,"event":"mousemove"},{"x":1019,"y":459,"t":1721,"event":"mousemove"},{"x":1018,"y":459,"t":2844,"event":"mousemove"},{"x":1014,"y":459,"t":2848,"event":"mousemove"},{"x":1000,"y":451,"t":2862,"event":"mousemove"},{"x":985,"y":442,"t":2879,"event":"mousemove"},{"x":967,"y":432,"t":2895,"event":"mousemove"},{"x":949,"y":422,"t":2912,"event":"mousemove"},{"x":923,"y":410,"t":2928,"event":"mousemove"},{"x":906,"y":398,"t":2945,"event":"mousemove"},{"x":897,"y":389,"t":2961,"event":"mousemove"},{"x":887,"y":374,"t":2978,"event":"mousemove"},{"x":879,"y":359,"t":2995,"event":"mousemove"},{"x":873,"y":340,"t":3012,"event":"mousemove"},{"x":868,"y":328,"t":3029,"event":"mousemove"},{"x":866,"y":322,"t":3045,"event":"mousemove"},{"x":866,"y":318,"t":3062,"event":"mousemove"},{"x":865,"y":316,"t":3078,"event":"mousemove"},{"x":863,"y":315,"t":3095,"event":"mousemove"},{"x":860,"y":311,"t":3111,"event":"mousemove"},{"x":856,"y":306,"t":3129,"event":"mousemove"},{"x":851,"y":299,"t":3146,"event":"mousemove"},{"x":849,"y":294,"t":3162,"event":"mousemove"},{"x":848,"y":293,"t":3179,"event":"mousemove"},{"x":844,"y":289,"t":3195,"event":"mousemove"},{"x":842,"y":287,"t":3212,"event":"mousemove"},{"x":842,"y":286,"t":3228,"event":"mousemove"},{"x":841,"y":286,"t":3246,"event":"mousemove"},{"x":839,"y":284,"t":3262,"event":"mousemove"},{"x":837,"y":284,"t":3279,"event":"mousemove"},{"x":836,"y":282,"t":3291,"event":"mousemove"},{"x":834,"y":282,"t":3296,"event":"mousemove"},{"x":834,"y":281,"t":3307,"event":"mousemove"}],"mouse_tracking_targets":{},"correct":true},{"rt":1758,"stimulus":"<p>How confident are you about your choice ?</p>","slider_start":50,"response":98,"trial_type":"html-slider-response","trial_index":72,"time_elapsed":148722,"internal_node_id":"0.0-7.0-2.13"},{"rt":null,"stimulus":"\n        <div id='jspsych-image' style='position: relative; width: min(80vw, 80vh); height: min(80vw, 80vh);'>\n                \n                <div style='position: absolute; top: 40%; left: 30%; bottom: 40%; right: 30%;'><h1 style='font-size: 60px; color: green;'>Correct!</h1></div>\n                \n                <div class='jspsych-image' id='jspsych-image-0' data-choice='0' style='top: 0;     left: 0;'><img style=\"width: 100%; height: 100%;\" src='../static/human_exp_images/task_shape/12_3.png' class='correct-choice'></img></div>\n                <div class='jspsych-image' id='jspsych-image-1' data-choice='1' style='top: 0;     right: 0;'><img style=\"width: 100%; height: 100%;\" src='../static/human_exp_images/task_shape/12_2.png' class=''></img></div>\n                <div class='jspsych-image' id='jspsych-image-2' data-choice='2' style='bottom: 0;  left: 0;'><img style=\"width: 100%; height: 100%;\" src='../static/human_exp_images/task_shape/12_1.png' class=''></img></div>\n                <div class='jspsych-image' id='jspsych-image-3' data-choice='3' style='bottom: 0;  right: 0;'><img style=\"width: 100%; height: 100%;\" src='../static/human_exp_images/task_shape/12_0.png' class=''></img></div>\n\n        </div>","response":null,"trial_type":"html-keyboard-response","trial_index":73,"time_elapsed":150226,"internal_node_id":"0.0-7.0-3.13"},{"rt":null,"trial_type":"image-click","trial_index":74,"time_elapsed":150957,"internal_node_id":"0.0-7.0-0.14"},{"rt":2543,"response":1,"all_choices":["../static/human_exp_images/task_shape/13_1.png","../static/human_exp_images/task_shape/13_3.png","../static/human_exp_images/task_shape/13_0.png","../static/human_exp_images/task_shape/13_2.png"],"task":"response","correct_response":1,"shuffled_array":[1,3,0,2],"catch_trial":false,"trial_type":"image-click","trial_index":75,"time_elapsed":153503,"internal_node_id":"0.0-7.0-1.14","mouse_tracking_data":[{"x":1028,"y":471,"t":1,"event":"mousemove"},{"x":1007,"y":469,"t":13,"event":"mousemove"},{"x":984,"y":462,"t":29,"event":"mousemove"},{"x":976,"y":459,"t":45,"event":"mousemove"},{"x":975,"y":455,"t":62,"event":"mousemove"},{"x":973,"y":453,"t":79,"event":"mousemove"},{"x":973,"y":452,"t":95,"event":"mousemove"},{"x":973,"y":450,"t":113,"event":"mousemove"},{"x":976,"y":450,"t":145,"event":"mousemove"},{"x":983,"y":450,"t":163,"event":"mousemove"},{"x":993,"y":450,"t":179,"event":"mousemove"},{"x":1002,"y":450,"t":197,"event":"mousemove"},{"x":1010,"y":450,"t":213,"event":"mousemove"},{"x":1019,"y":450,"t":230,"event":"mousemove"},{"x":1024,"y":450,"t":245,"event":"mousemove"},{"x":1033,"y":453,"t":262,"event":"mousemove"},{"x":1040,"y":455,"t":279,"event":"mousemove"},{"x":1043,"y":455,"t":296,"event":"mousemove"},{"x":1048,"y":457,"t":313,"event":"mousemove"},{"x":1051,"y":457,"t":329,"event":"mousemove"},{"x":1055,"y":457,"t":346,"event":"mousemove"},{"x":1058,"y":457,"t":361,"event":"mousemove"},{"x":1060,"y":457,"t":379,"event":"mousemove"},{"x":1062,"y":457,"t":403,"event":"mousemove"},{"x":1063,"y":457,"t":422,"event":"mousemove"},{"x":1063,"y":458,"t":2151,"event":"mousemove"},{"x":1063,"y":462,"t":2159,"event":"mousemove"},{"x":1062,"y":463,"t":2164,"event":"mousemove"},{"x":1062,"y":465,"t":2167,"event":"mousemove"},{"x":1060,"y":467,"t":2168,"event":"mousemove"},{"x":1060,"y":469,"t":2186,"event":"mousemove"},{"x":1060,"y":467,"t":2271,"event":"mousemove"},{"x":1064,"y":458,"t":2276,"event":"mousemove"},{"x":1064,"y":453,"t":2279,"event":"mousemove"},{"x":1068,"y":444,"t":2285,"event":"mousemove"},{"x":1070,"y":440,"t":2290,"event":"mousemove"},{"x":1075,"y":429,"t":2294,"event":"mousemove"},{"x":1078,"y":422,"t":2296,"event":"mousemove"},{"x":1084,"y":404,"t":2312,"event":"mousemove"},{"x":1095,"y":375,"t":2329,"event":"mousemove"},{"x":1106,"y":351,"t":2345,"event":"mousemove"},{"x":1116,"y":332,"t":2363,"event":"mousemove"},{"x":1120,"y":327,"t":2378,"event":"mousemove"},{"x":1128,"y":318,"t":2396,"event":"mousemove"},{"x":1130,"y":318,"t":2412,"event":"mousemove"},{"x":1130,"y":317,"t":2523,"event":"mousemove"}],"mouse_tracking_targets":{},"correct":true},{"rt":1089,"stimulus":"<p>How confident are you about your choice ?</p>","slider_start":50,"response":100,"trial_type":"html-slider-response","trial_index":76,"time_elapsed":154594,"internal_node_id":"0.0-7.0-2.14"},{"rt":null,"stimulus":"\n        <div id='jspsych-image' style='position: relative; width: min(80vw, 80vh); height: min(80vw, 80vh);'>\n                \n                <div style='position: absolute; top: 40%; left: 30%; bottom: 40%; right: 30%;'><h1 style='font-size: 60px; color: green;'>Correct!</h1></div>\n                \n                <div class='jspsych-image' id='jspsych-image-0' data-choice='0' style='top: 0;     left: 0;'><img style=\"width: 100%; height: 100%;\" src='../static/human_exp_images/task_shape/13_1.png' class=''></img></div>\n                <div class='jspsych-image' id='jspsych-image-1' data-choice='1' style='top: 0;     right: 0;'><img style=\"width: 100%; height: 100%;\" src='../static/human_exp_images/task_shape/13_3.png' class='correct-choice'></img></div>\n                <div class='jspsych-image' id='jspsych-image-2' data-choice='2' style='bottom: 0;  left: 0;'><img style=\"width: 100%; height: 100%;\" src='../static/human_exp_images/task_shape/13_0.png' class=''></img></div>\n                <div class='jspsych-image' id='jspsych-image-3' data-choice='3' style='bottom: 0;  right: 0;'><img style=\"width: 100%; height: 100%;\" src='../static/human_exp_images/task_shape/13_2.png' class=''></img></div>\n\n        </div>","response":null,"trial_type":"html-keyboard-response","trial_index":77,"time_elapsed":156097,"internal_node_id":"0.0-7.0-3.14"},{"rt":null,"trial_type":"image-click","trial_index":78,"time_elapsed":156841,"internal_node_id":"0.0-7.0-0.15"},{"rt":1619,"response":1,"all_choices":["../static/human_exp_images/task_shape/14_1.png","../static/human_exp_images/task_shape/14_3.png","../static/human_exp_images/task_shape/14_0.png","../static/human_exp_images/task_shape/14_2.png"],"task":"response","correct_response":1,"shuffled_array":[1,3,0,2],"catch_trial":false,"trial_type":"image-click","trial_index":79,"time_elapsed":158461,"internal_node_id":"0.0-7.0-1.15","mouse_tracking_data":[{"x":1049,"y":474,"t":1,"event":"mousemove"},{"x":1024,"y":472,"t":16,"event":"mousemove"},{"x":1006,"y":470,"t":32,"event":"mousemove"},{"x":994,"y":470,"t":49,"event":"mousemove"},{"x":977,"y":468,"t":66,"event":"mousemove"},{"x":969,"y":466,"t":82,"event":"mousemove"},{"x":965,"y":466,"t":99,"event":"mousemove"},{"x":965,"y":465,"t":115,"event":"mousemove"},{"x":965,"y":461,"t":133,"event":"mousemove"},{"x":965,"y":458,"t":149,"event":"mousemove"},{"x":965,"y":455,"t":166,"event":"mousemove"},{"x":969,"y":455,"t":183,"event":"mousemove"},{"x":979,"y":455,"t":199,"event":"mousemove"},{"x":986,"y":455,"t":216,"event":"mousemove"},{"x":996,"y":455,"t":233,"event":"mousemove"},{"x":1005,"y":455,"t":250,"event":"mousemove"},{"x":1015,"y":455,"t":266,"event":"mousemove"},{"x":1023,"y":455,"t":282,"event":"mousemove"},{"x":1030,"y":455,"t":299,"event":"mousemove"},{"x":1037,"y":455,"t":316,"event":"mousemove"},{"x":1040,"y":455,"t":333,"event":"mousemove"},{"x":1044,"y":455,"t":349,"event":"mousemove"},{"x":1047,"y":455,"t":367,"event":"mousemove"},{"x":1051,"y":455,"t":383,"event":"mousemove"},{"x":1052,"y":455,"t":400,"event":"mousemove"},{"x":1054,"y":455,"t":415,"event":"mousemove"},{"x":1056,"y":455,"t":433,"event":"mousemove"},{"x":1058,"y":455,"t":460,"event":"mousemove"},{"x":1059,"y":455,"t":1338,"event":"mousemove"},{"x":1061,"y":455,"t":1350,"event":"mousemove"},{"x":1062,"y":455,"t":1365,"event":"mousemove"},{"x":1064,"y":455,"t":1371,"event":"mousemove"},{"x":1066,"y":455,"t":1376,"event":"mousemove"},{"x":1069,"y":453,"t":1384,"event":"mousemove"},{"x":1069,"y":451,"t":1386,"event":"mousemove"},{"x":1078,"y":439,"t":1402,"event":"mousemove"},{"x":1092,"y":421,"t":1419,"event":"mousemove"},{"x":1101,"y":406,"t":1436,"event":"mousemove"},{"x":1122,"y":368,"t":1453,"event":"mousemove"},{"x":1147,"y":316,"t":1469,"event":"mousemove"},{"x":1178,"y":257,"t":1485,"event":"mousemove"},{"x":1198,"y":229,"t":1502,"event":"mousemove"},{"x":1202,"y":221,"t":1519,"event":"mousemove"},{"x":1204,"y":219,"t":1536,"event":"mousemove"}],"mouse_tracking_targets":{},"correct":true},{"rt":1013,"stimulus":"<p>How confident are you about your choice ?</p>","slider_start":50,"response":99,"trial_type":"html-slider-response","trial_index":80,"time_elapsed":159474,"internal_node_id":"0.0-7.0-2.15"},{"rt":null,"stimulus":"\n        <div id='jspsych-image' style='position: relative; width: min(80vw, 80vh); height: min(80vw, 80vh);'>\n                \n                <div style='position: absolute; top: 40%; left: 30%; bottom: 40%; right: 30%;'><h1 style='font-size: 60px; color: green;'>Correct!</h1></div>\n                \n                <div class='jspsych-image' id='jspsych-image-0' data-choice='0' style='top: 0;     left: 0;'><img style=\"width: 100%; height: 100%;\" src='../static/human_exp_images/task_shape/14_1.png' class=''></img></div>\n                <div class='jspsych-image' id='jspsych-image-1' data-choice='1' style='top: 0;     right: 0;'><img style=\"width: 100%; height: 100%;\" src='../static/human_exp_images/task_shape/14_3.png' class='correct-choice'></img></div>\n                <div class='jspsych-image' id='jspsych-image-2' data-choice='2' style='bottom: 0;  left: 0;'><img style=\"width: 100%; height: 100%;\" src='../static/human_exp_images/task_shape/14_0.png' class=''></img></div>\n                <div class='jspsych-image' id='jspsych-image-3' data-choice='3' style='bottom: 0;  right: 0;'><img style=\"width: 100%; height: 100%;\" src='../static/human_exp_images/task_shape/14_2.png' class=''></img></div>\n\n        </div>","response":null,"trial_type":"html-keyboard-response","trial_index":81,"time_elapsed":160976,"internal_node_id":"0.0-7.0-3.15"},{"rt":null,"trial_type":"image-click","trial_index":82,"time_elapsed":161496,"internal_node_id":"0.0-7.0-0.16"},{"rt":1369,"response":2,"all_choices":["../static/human_exp_images/task_shape/15_2.png","../static/human_exp_images/task_shape/15_1.png","../static/human_exp_images/task_shape/15_3.png","../static/human_exp_images/task_shape/15_0.png"],"task":"response","correct_response":2,"shuffled_array":[2,1,3,0],"catch_trial":false,"trial_type":"image-click","trial_index":83,"time_elapsed":162865,"internal_node_id":"0.0-7.0-1.16","mouse_tracking_data":[{"x":1036,"y":442,"t":0,"event":"mousemove"},{"x":973,"y":424,"t":17,"event":"mousemove"},{"x":937,"y":408,"t":33,"event":"mousemove"},{"x":923,"y":401,"t":50,"event":"mousemove"},{"x":919,"y":400,"t":66,"event":"mousemove"},{"x":917,"y":400,"t":84,"event":"mousemove"},{"x":921,"y":400,"t":212,"event":"mousemove"},{"x":923,"y":400,"t":217,"event":"mousemove"},{"x":941,"y":400,"t":235,"event":"mousemove"},{"x":964,"y":409,"t":250,"event":"mousemove"},{"x":986,"y":429,"t":267,"event":"mousemove"},{"x":1006,"y":445,"t":283,"event":"mousemove"},{"x":1017,"y":450,"t":301,"event":"mousemove"},{"x":1027,"y":458,"t":317,"event":"mousemove"},{"x":1036,"y":459,"t":334,"event":"mousemove"},{"x":1048,"y":463,"t":350,"event":"mousemove"},{"x":1060,"y":468,"t":368,"event":"mousemove"},{"x":1075,"y":476,"t":383,"event":"mousemove"},{"x":1090,"y":485,"t":400,"event":"mousemove"},{"x":1105,"y":494,"t":417,"event":"mousemove"},{"x":1115,"y":501,"t":434,"event":"mousemove"},{"x":1122,"y":503,"t":451,"event":"mousemove"},{"x":1125,"y":503,"t":466,"event":"mousemove"},{"x":1125,"y":504,"t":484,"event":"mousemove"},{"x":1127,"y":504,"t":501,"event":"mousemove"},{"x":1129,"y":504,"t":517,"event":"mousemove"},{"x":1130,"y":504,"t":533,"event":"mousemove"},{"x":1129,"y":504,"t":979,"event":"mousemove"},{"x":1122,"y":504,"t":984,"event":"mousemove"},{"x":1119,"y":504,"t":986,"event":"mousemove"},{"x":1107,"y":504,"t":993,"event":"mousemove"},{"x":1103,"y":504,"t":996,"event":"mousemove"},{"x":1087,"y":504,"t":1001,"event":"mousemove"},{"x":1079,"y":504,"t":1001,"event":"mousemove"},{"x":1061,"y":504,"t":1011,"event":"mousemove"},{"x":1056,"y":504,"t":1012,"event":"mousemove"},{"x":1035,"y":504,"t":1028,"event":"mousemove"},{"x":998,"y":507,"t":1045,"event":"mousemove"},{"x":963,"y":528,"t":1061,"event":"mousemove"},{"x":939,"y":542,"t":1078,"event":"mousemove"},{"x":913,"y":558,"t":1094,"event":"mousemove"},{"x":899,"y":567,"t":1112,"event":"mousemove"},{"x":888,"y":572,"t":1128,"event":"mousemove"},{"x":868,"y":580,"t":1144,"event":"mousemove"},{"x":849,"y":590,"t":1161,"event":"mousemove"},{"x":835,"y":595,"t":1177,"event":"mousemove"},{"x":823,"y":601,"t":1195,"event":"mousemove"},{"x":818,"y":604,"t":1211,"event":"mousemove"},{"x":815,"y":607,"t":1228,"event":"mousemove"},{"x":808,"y":613,"t":1244,"event":"mousemove"},{"x":801,"y":618,"t":1261,"event":"mousemove"},{"x":792,"y":621,"t":1278,"event":"mousemove"},{"x":787,"y":623,"t":1294,"event":"mousemove"},{"x":786,"y":625,"t":1311,"event":"mousemove"},{"x":784,"y":625,"t":1328,"event":"mousemove"},{"x":782,"y":625,"t":1344,"event":"mousemove"}],"mouse_tracking_targets":{},"correct":true},{"rt":1283,"stimulus":"<p>How confident are you about your choice ?</p>","slider_start":50,"response":100,"trial_type":"html-slider-response","trial_index":84,"time_elapsed":164148,"internal_node_id":"0.0-7.0-2.16"},{"rt":null,"stimulus":"\n        <div id='jspsych-image' style='position: relative; width: min(80vw, 80vh); height: min(80vw, 80vh);'>\n                \n                <div style='position: absolute; top: 40%; left: 30%; bottom: 40%; right: 30%;'><h1 style='font-size: 60px; color: green;'>Correct!</h1></div>\n                \n                <div class='jspsych-image' id='jspsych-image-0' data-choice='0' style='top: 0;     left: 0;'><img style=\"width: 100%; height: 100%;\" src='../static/human_exp_images/task_shape/15_2.png' class=''></img></div>\n                <div class='jspsych-image' id='jspsych-image-1' data-choice='1' style='top: 0;     right: 0;'><img style=\"width: 100%; height: 100%;\" src='../static/human_exp_images/task_shape/15_1.png' class=''></img></div>\n                <div class='jspsych-image' id='jspsych-image-2' data-choice='2' style='bottom: 0;  left: 0;'><img style=\"width: 100%; height: 100%;\" src='../static/human_exp_images/task_shape/15_3.png' class='correct-choice'></img></div>\n                <div class='jspsych-image' id='jspsych-image-3' data-choice='3' style='bottom: 0;  right: 0;'><img style=\"width: 100%; height: 100%;\" src='../static/human_exp_images/task_shape/15_0.png' class=''></img></div>\n\n        </div>","response":null,"trial_type":"html-keyboard-response","trial_index":85,"time_elapsed":165649,"internal_node_id":"0.0-7.0-3.16"},{"rt":null,"trial_type":"image-click","trial_index":86,"time_elapsed":166388,"internal_node_id":"0.0-7.0-0.17"},{"rt":1540,"response":3,"all_choices":["../static/human_exp_images/task_shape/16_2.png","../static/human_exp_images/task_shape/16_1.png","../static/human_exp_images/task_shape/16_0.png","../static/human_exp_images/task_shape/16_3.png"],"task":"response","correct_response":3,"shuffled_array":[2,1,0,3],"catch_trial":false,"trial_type":"image-click","trial_index":87,"time_elapsed":167931,"internal_node_id":"0.0-7.0-1.17","mouse_tracking_data":[{"x":1046,"y":495,"t":0,"event":"mousemove"},{"x":1029,"y":495,"t":14,"event":"mousemove"},{"x":1016,"y":495,"t":30,"event":"mousemove"},{"x":1009,"y":491,"t":46,"event":"mousemove"},{"x":1006,"y":486,"t":64,"event":"mousemove"},{"x":1004,"y":484,"t":80,"event":"mousemove"},{"x":1003,"y":483,"t":97,"event":"mousemove"},{"x":1001,"y":483,"t":145,"event":"mousemove"},{"x":1001,"y":481,"t":165,"event":"mousemove"},{"x":1001,"y":479,"t":247,"event":"mousemove"},{"x":1001,"y":478,"t":273,"event":"mousemove"},{"x":1001,"y":476,"t":437,"event":"mousemove"},{"x":1002,"y":476,"t":978,"event":"mousemove"},{"x":1002,"y":474,"t":979,"event":"mousemove"},{"x":1008,"y":470,"t":995,"event":"mousemove"},{"x":1011,"y":470,"t":1012,"event":"mousemove"},{"x":1013,"y":470,"t":1029,"event":"mousemove"},{"x":1018,"y":468,"t":1045,"event":"mousemove"},{"x":1027,"y":468,"t":1062,"event":"mousemove"},{"x":1037,"y":468,"t":1078,"event":"mousemove"},{"x":1047,"y":468,"t":1095,"event":"mousemove"},{"x":1057,"y":468,"t":1112,"event":"mousemove"},{"x":1071,"y":479,"t":1129,"event":"mousemove"},{"x":1085,"y":489,"t":1145,"event":"mousemove"},{"x":1102,"y":503,"t":1162,"event":"mousemove"},{"x":1116,"y":517,"t":1179,"event":"mousemove"},{"x":1132,"y":533,"t":1196,"event":"mousemove"},{"x":1148,"y":551,"t":1212,"event":"mousemove"},{"x":1160,"y":563,"t":1229,"event":"mousemove"},{"x":1176,"y":581,"t":1246,"event":"mousemove"},{"x":1184,"y":591,"t":1262,"event":"mousemove"},{"x":1189,"y":599,"t":1278,"event":"mousemove"},{"x":1193,"y":601,"t":1296,"event":"mousemove"},{"x":1194,"y":601,"t":1312,"event":"mousemove"},{"x":1194,"y":604,"t":1329,"event":"mousemove"},{"x":1196,"y":608,"t":1345,"event":"mousemove"},{"x":1199,"y":613,"t":1363,"event":"mousemove"},{"x":1201,"y":618,"t":1379,"event":"mousemove"},{"x":1203,"y":620,"t":1396,"event":"mousemove"},{"x":1203,"y":622,"t":1412,"event":"mousemove"}],"mouse_tracking_targets":{},"correct":true},{"rt":1568,"stimulus":"<p>How confident are you about your choice ?</p>","slider_start":50,"response":100,"trial_type":"html-slider-response","trial_index":88,"time_elapsed":169500,"internal_node_id":"0.0-7.0-2.17"},{"rt":null,"stimulus":"\n        <div id='jspsych-image' style='position: relative; width: min(80vw, 80vh); height: min(80vw, 80vh);'>\n                \n                <div style='position: absolute; top: 40%; left: 30%; bottom: 40%; right: 30%;'><h1 style='font-size: 60px; color: green;'>Correct!</h1></div>\n                \n                <div class='jspsych-image' id='jspsych-image-0' data-choice='0' style='top: 0;     left: 0;'><img style=\"width: 100%; height: 100%;\" src='../static/human_exp_images/task_shape/16_2.png' class=''></img></div>\n                <div class='jspsych-image' id='jspsych-image-1' data-choice='1' style='top: 0;     right: 0;'><img style=\"width: 100%; height: 100%;\" src='../static/human_exp_images/task_shape/16_1.png' class=''></img></div>\n                <div class='jspsych-image' id='jspsych-image-2' data-choice='2' style='bottom: 0;  left: 0;'><img style=\"width: 100%; height: 100%;\" src='../static/human_exp_images/task_shape/16_0.png' class=''></img></div>\n                <div class='jspsych-image' id='jspsych-image-3' data-choice='3' style='bottom: 0;  right: 0;'><img style=\"width: 100%; height: 100%;\" src='../static/human_exp_images/task_shape/16_3.png' class='correct-choice'></img></div>\n\n        </div>","response":null,"trial_type":"html-keyboard-response","trial_index":89,"time_elapsed":171002,"internal_node_id":"0.0-7.0-3.17"},{"rt":null,"trial_type":"image-click","trial_index":90,"time_elapsed":171603,"internal_node_id":"0.0-7.0-0.18"},{"rt":1825,"response":0,"all_choices":["../static/human_exp_images/task_shape/17_3.png","../static/human_exp_images/task_shape/17_2.png","../static/human_exp_images/task_shape/17_0.png","../static/human_exp_images/task_shape/17_1.png"],"task":"response","correct_response":0,"shuffled_array":[3,2,0,1],"catch_trial":false,"trial_type":"image-click","trial_index":91,"time_elapsed":173428,"internal_node_id":"0.0-7.0-1.18","mouse_tracking_data":[{"x":1049,"y":475,"t":1,"event":"mousemove"},{"x":1028,"y":471,"t":17,"event":"mousemove"},{"x":1011,"y":470,"t":34,"event":"mousemove"},{"x":999,"y":466,"t":50,"event":"mousemove"},{"x":981,"y":462,"t":68,"event":"mousemove"},{"x":969,"y":459,"t":83,"event":"mousemove"},{"x":962,"y":457,"t":100,"event":"mousemove"},{"x":961,"y":455,"t":116,"event":"mousemove"},{"x":959,"y":455,"t":133,"event":"mousemove"},{"x":961,"y":455,"t":351,"event":"mousemove"},{"x":962,"y":455,"t":360,"event":"mousemove"},{"x":966,"y":455,"t":369,"event":"mousemove"},{"x":967,"y":455,"t":374,"event":"mousemove"},{"x":969,"y":455,"t":377,"event":"mousemove"},{"x":971,"y":455,"t":379,"event":"mousemove"},{"x":978,"y":455,"t":395,"event":"mousemove"},{"x":986,"y":455,"t":412,"event":"mousemove"},{"x":995,"y":455,"t":428,"event":"mousemove"},{"x":1007,"y":455,"t":445,"event":"mousemove"},{"x":1019,"y":455,"t":462,"event":"mousemove"},{"x":1032,"y":455,"t":479,"event":"mousemove"},{"x":1043,"y":459,"t":494,"event":"mousemove"},{"x":1053,"y":462,"t":512,"event":"mousemove"},{"x":1061,"y":465,"t":527,"event":"mousemove"},{"x":1070,"y":467,"t":545,"event":"mousemove"},{"x":1079,"y":469,"t":561,"event":"mousemove"},{"x":1089,"y":471,"t":578,"event":"mousemove"},{"x":1097,"y":474,"t":595,"event":"mousemove"},{"x":1108,"y":477,"t":612,"event":"mousemove"},{"x":1114,"y":479,"t":628,"event":"mousemove"},{"x":1118,"y":481,"t":645,"event":"mousemove"},{"x":1120,"y":483,"t":662,"event":"mousemove"},{"x":1121,"y":483,"t":679,"event":"mousemove"},{"x":1123,"y":483,"t":695,"event":"mousemove"},{"x":1123,"y":480,"t":1452,"event":"mousemove"},{"x":1123,"y":472,"t":1456,"event":"mousemove"},{"x":1123,"y":469,"t":1458,"event":"mousemove"},{"x":1103,"y":448,"t":1474,"event":"mousemove"},{"x":1083,"y":433,"t":1491,"event":"mousemove"},{"x":1049,"y":416,"t":1508,"event":"mousemove"},{"x":1020,"y":404,"t":1525,"event":"mousemove"},{"x":998,"y":395,"t":1540,"event":"mousemove"},{"x":965,"y":381,"t":1557,"event":"mousemove"},{"x":949,"y":368,"t":1575,"event":"mousemove"},{"x":935,"y":359,"t":1591,"event":"mousemove"},{"x":915,"y":345,"t":1609,"event":"mousemove"},{"x":897,"y":329,"t":1624,"event":"mousemove"},{"x":876,"y":315,"t":1642,"event":"mousemove"},{"x":859,"y":303,"t":1658,"event":"mousemove"},{"x":843,"y":296,"t":1675,"event":"mousemove"},{"x":832,"y":291,"t":1691,"event":"mousemove"},{"x":818,"y":284,"t":1708,"event":"mousemove"},{"x":808,"y":279,"t":1724,"event":"mousemove"},{"x":801,"y":273,"t":1741,"event":"mousemove"},{"x":797,"y":269,"t":1757,"event":"mousemove"},{"x":797,"y":268,"t":1776,"event":"mousemove"},{"x":796,"y":268,"t":1795,"event":"mousemove"}],"mouse_tracking_targets":{},"correct":true},{"rt":1275,"stimulus":"<p>How confident are you about your choice ?</p>","slider_start":50,"response":100,"trial_type":"html-slider-response","trial_index":92,"time_elapsed":174705,"internal_node_id":"0.0-7.0-2.18"},{"rt":null,"stimulus":"\n        <div id='jspsych-image' style='position: relative; width: min(80vw, 80vh); height: min(80vw, 80vh);'>\n                \n                <div style='position: absolute; top: 40%; left: 30%; bottom: 40%; right: 30%;'><h1 style='font-size: 60px; color: green;'>Correct!</h1></div>\n                \n                <div class='jspsych-image' id='jspsych-image-0' data-choice='0' style='top: 0;     left: 0;'><img style=\"width: 100%; height: 100%;\" src='../static/human_exp_images/task_shape/17_3.png' class='correct-choice'></img></div>\n                <div class='jspsych-image' id='jspsych-image-1' data-choice='1' style='top: 0;     right: 0;'><img style=\"width: 100%; height: 100%;\" src='../static/human_exp_images/task_shape/17_2.png' class=''></img></div>\n                <div class='jspsych-image' id='jspsych-image-2' data-choice='2' style='bottom: 0;  left: 0;'><img style=\"width: 100%; height: 100%;\" src='../static/human_exp_images/task_shape/17_0.png' class=''></img></div>\n                <div class='jspsych-image' id='jspsych-image-3' data-choice='3' style='bottom: 0;  right: 0;'><img style=\"width: 100%; height: 100%;\" src='../static/human_exp_images/task_shape/17_1.png' class=''></img></div>\n\n        </div>","response":null,"trial_type":"html-keyboard-response","trial_index":93,"time_elapsed":176208,"internal_node_id":"0.0-7.0-3.18"},{"rt":null,"trial_type":"image-click","trial_index":94,"time_elapsed":176209,"internal_node_id":"0.0-7.0-0.19"},{"rt":1170,"response":3,"all_choices":["../static/human_exp_images/task_shape/18_2.png","../static/human_exp_images/task_shape/18_0.png","../static/human_exp_images/task_shape/18_1.png","../static/human_exp_images/task_shape/18_3.png"],"task":"response","correct_response":3,"shuffled_array":[2,0,1,3],"catch_trial":false,"trial_type":"image-click","trial_index":95,"time_elapsed":177381,"internal_node_id":"0.0-7.0-1.19","mouse_tracking_data":[{"x":1031,"y":480,"t":413,"event":"mousemove"},{"x":1033,"y":483,"t":893,"event":"mousemove"},{"x":1040,"y":491,"t":895,"event":"mousemove"},{"x":1066,"y":528,"t":909,"event":"mousemove"},{"x":1094,"y":568,"t":928,"event":"mousemove"},{"x":1136,"y":610,"t":944,"event":"mousemove"},{"x":1172,"y":647,"t":960,"event":"mousemove"},{"x":1198,"y":672,"t":976,"event":"mousemove"},{"x":1205,"y":682,"t":993,"event":"mousemove"},{"x":1208,"y":685,"t":1009,"event":"mousemove"},{"x":1210,"y":687,"t":1026,"event":"mousemove"}],"mouse_tracking_targets":{},"correct":true},{"rt":1430,"stimulus":"<p>How confident are you about your choice ?</p>","slider_start":50,"response":100,"trial_type":"html-slider-response","trial_index":96,"time_elapsed":178813,"internal_node_id":"0.0-7.0-2.19"},{"rt":null,"stimulus":"\n        <div id='jspsych-image' style='position: relative; width: min(80vw, 80vh); height: min(80vw, 80vh);'>\n                \n                <div style='position: absolute; top: 40%; left: 30%; bottom: 40%; right: 30%;'><h1 style='font-size: 60px; color: green;'>Correct!</h1></div>\n                \n                <div class='jspsych-image' id='jspsych-image-0' data-choice='0' style='top: 0;     left: 0;'><img style=\"width: 100%; height: 100%;\" src='../static/human_exp_images/task_shape/18_2.png' class=''></img></div>\n                <div class='jspsych-image' id='jspsych-image-1' data-choice='1' style='top: 0;     right: 0;'><img style=\"width: 100%; height: 100%;\" src='../static/human_exp_images/task_shape/18_0.png' class=''></img></div>\n                <div class='jspsych-image' id='jspsych-image-2' data-choice='2' style='bottom: 0;  left: 0;'><img style=\"width: 100%; height: 100%;\" src='../static/human_exp_images/task_shape/18_1.png' class=''></img></div>\n                <div class='jspsych-image' id='jspsych-image-3' data-choice='3' style='bottom: 0;  right: 0;'><img style=\"width: 100%; height: 100%;\" src='../static/human_exp_images/task_shape/18_3.png' class='correct-choice'></img></div>\n\n        </div>","response":null,"trial_type":"html-keyboard-response","trial_index":97,"time_elapsed":180316,"internal_node_id":"0.0-7.0-3.19"},{"rt":null,"trial_type":"image-click","trial_index":98,"time_elapsed":180318,"internal_node_id":"0.0-7.0-0.20"},{"rt":1666,"response":2,"all_choices":["../static/human_exp_images/task_shape/19_1.png","../static/human_exp_images/task_shape/19_2.png","../static/human_exp_images/task_shape/19_3.png","../static/human_exp_images/task_shape/19_0.png"],"task":"response","correct_response":2,"shuffled_array":[1,2,3,0],"catch_trial":false,"trial_type":"image-click","trial_index":99,"time_elapsed":181988,"internal_node_id":"0.0-7.0-1.20","mouse_tracking_data":[{"x":1006,"y":460,"t":1248,"event":"mousemove"},{"x":1002,"y":461,"t":1254,"event":"mousemove"},{"x":1001,"y":463,"t":1256,"event":"mousemove"},{"x":997,"y":465,"t":1265,"event":"mousemove"},{"x":994,"y":466,"t":1267,"event":"mousemove"},{"x":989,"y":470,"t":1274,"event":"mousemove"},{"x":987,"y":472,"t":1278,"event":"mousemove"},{"x":982,"y":475,"t":1281,"event":"mousemove"},{"x":979,"y":477,"t":1286,"event":"mousemove"},{"x":972,"y":482,"t":1290,"event":"mousemove"},{"x":967,"y":482,"t":1291,"event":"mousemove"},{"x":959,"y":488,"t":1299,"event":"mousemove"},{"x":955,"y":488,"t":1301,"event":"mousemove"},{"x":947,"y":492,"t":1308,"event":"mousemove"},{"x":943,"y":494,"t":1311,"event":"mousemove"},{"x":938,"y":495,"t":1317,"event":"mousemove"},{"x":934,"y":497,"t":1322,"event":"mousemove"},{"x":929,"y":499,"t":1327,"event":"mousemove"},{"x":925,"y":501,"t":1333,"event":"mousemove"},{"x":919,"y":501,"t":1337,"event":"mousemove"},{"x":917,"y":503,"t":1338,"event":"mousemove"},{"x":910,"y":505,"t":1354,"event":"mousemove"},{"x":900,"y":510,"t":1372,"event":"mousemove"},{"x":891,"y":513,"t":1387,"event":"mousemove"},{"x":883,"y":518,"t":1405,"event":"mousemove"},{"x":874,"y":525,"t":1421,"event":"mousemove"},{"x":864,"y":537,"t":1438,"event":"mousemove"},{"x":855,"y":548,"t":1454,"event":"mousemove"},{"x":841,"y":565,"t":1472,"event":"mousemove"},{"x":829,"y":579,"t":1489,"event":"mousemove"},{"x":818,"y":593,"t":1505,"event":"mousemove"},{"x":808,"y":602,"t":1522,"event":"mousemove"},{"x":801,"y":605,"t":1537,"event":"mousemove"},{"x":796,"y":610,"t":1555,"event":"mousemove"},{"x":794,"y":610,"t":1572,"event":"mousemove"}],"mouse_tracking_targets":{},"correct":true},{"rt":1225,"stimulus":"<p>How confident are you about your choice ?</p>","slider_start":50,"response":100,"trial_type":"html-slider-response","trial_index":100,"time_elapsed":183214,"internal_node_id":"0.0-7.0-2.20"},{"rt":null,"stimulus":"\n        <div id='jspsych-image' style='position: relative; width: min(80vw, 80vh); height: min(80vw, 80vh);'>\n                \n                <div style='position: absolute; top: 40%; left: 30%; bottom: 40%; right: 30%;'><h1 style='font-size: 60px; color: green;'>Correct!</h1></div>\n                \n                <div class='jspsych-image' id='jspsych-image-0' data-choice='0' style='top: 0;     left: 0;'><img style=\"width: 100%; height: 100%;\" src='../static/human_exp_images/task_shape/19_1.png' class=''></img></div>\n                <div class='jspsych-image' id='jspsych-image-1' data-choice='1' style='top: 0;     right: 0;'><img style=\"width: 100%; height: 100%;\" src='../static/human_exp_images/task_shape/19_2.png' class=''></img></div>\n                <div class='jspsych-image' id='jspsych-image-2' data-choice='2' style='bottom: 0;  left: 0;'><img style=\"width: 100%; height: 100%;\" src='../static/human_exp_images/task_shape/19_3.png' class='correct-choice'></img></div>\n                <div class='jspsych-image' id='jspsych-image-3' data-choice='3' style='bottom: 0;  right: 0;'><img style=\"width: 100%; height: 100%;\" src='../static/human_exp_images/task_shape/19_0.png' class=''></img></div>\n\n        </div>","response":null,"trial_type":"html-keyboard-response","trial_index":101,"time_elapsed":184716,"internal_node_id":"0.0-7.0-3.20"}]