[{"rt":null,"trial_type":"image-click","trial_index":3,"time_elapsed":12522724,"internal_node_id":"0.0-3.0-0.0"},{"rt":1601,"response":0,"all_choices":["../static/human_exp_images/practice_img/00_3.png","../static/human_exp_images/practice_img/00_2.png","../static/human_exp_images/practice_img/00_1.png","../static/human_exp_images/practice_img/00_0.png"],"task":"response","correct_response":0,"shuffled_array":[3,2,1,0],"catch_trial":false,"trial_type":"image-click","trial_index":4,"time_elapsed":12524326,"internal_node_id":"0.0-3.0-1.0","mouse_tracking_data":[{"x":904,"y":444,"t":1,"event":"mousemove"},{"x":946,"y":444,"t":16,"event":"mousemove"},{"x":987,"y":444,"t":32,"event":"mousemove"},{"x":1015,"y":444,"t":50,"event":"mousemove"},{"x":1038,"y":444,"t":65,"event":"mousemove"},{"x":1073,"y":430,"t":82,"event":"mousemove"},{"x":1096,"y":418,"t":99,"event":"mousemove"},{"x":1127,"y":405,"t":116,"event":"mousemove"},{"x":1152,"y":393,"t":133,"event":"mousemove"},{"x":1162,"y":385,"t":149,"event":"mousemove"},{"x":1163,"y":384,"t":166,"event":"mousemove"},{"x":1162,"y":384,"t":485,"event":"mousemove"},{"x":1160,"y":384,"t":502,"event":"mousemove"},{"x":1158,"y":384,"t":522,"event":"mousemove"},{"x":1157,"y":384,"t":542,"event":"mousemove"},{"x":1155,"y":384,"t":547,"event":"mousemove"},{"x":1152,"y":384,"t":555,"event":"mousemove"},{"x":1150,"y":384,"t":557,"event":"mousemove"},{"x":1145,"y":384,"t":564,"event":"mousemove"},{"x":1143,"y":384,"t":567,"event":"mousemove"},{"x":1140,"y":387,"t":574,"event":"mousemove"},{"x":1136,"y":389,"t":577,"event":"mousemove"},{"x":1133,"y":390,"t":582,"event":"mousemove"},{"x":1129,"y":392,"t":583,"event":"mousemove"},{"x":1121,"y":397,"t":599,"event":"mousemove"},{"x":1095,"y":415,"t":616,"event":"mousemove"},{"x":1075,"y":428,"t":632,"event":"mousemove"},{"x":1056,"y":438,"t":650,"event":"mousemove"},{"x":1046,"y":445,"t":665,"event":"mousemove"},{"x":1039,"y":448,"t":682,"event":"mousemove"},{"x":1027,"y":455,"t":699,"event":"mousemove"},{"x":1013,"y":464,"t":716,"event":"mousemove"},{"x":1003,"y":469,"t":733,"event":"mousemove"},{"x":996,"y":471,"t":749,"event":"mousemove"},{"x":993,"y":472,"t":767,"event":"mousemove"},{"x":993,"y":474,"t":782,"event":"mousemove"},{"x":991,"y":474,"t":800,"event":"mousemove"},{"x":989,"y":474,"t":817,"event":"mousemove"},{"x":986,"y":474,"t":833,"event":"mousemove"},{"x":974,"y":474,"t":850,"event":"mousemove"},{"x":957,"y":466,"t":866,"event":"mousemove"},{"x":916,"y":437,"t":883,"event":"mousemove"},{"x":877,"y":408,"t":900,"event":"mousemove"},{"x":850,"y":388,"t":917,"event":"mousemove"},{"x":840,"y":381,"t":933,"event":"mousemove"},{"x":831,"y":372,"t":950,"event":"mousemove"},{"x":824,"y":367,"t":966,"event":"mousemove"},{"x":804,"y":353,"t":983,"event":"mousemove"},{"x":785,"y":345,"t":1000,"event":"mousemove"},{"x":767,"y":334,"t":1016,"event":"mousemove"},{"x":760,"y":327,"t":1033,"event":"mousemove"},{"x":757,"y":320,"t":1049,"event":"mousemove"},{"x":755,"y":317,"t":1066,"event":"mousemove"},{"x":755,"y":312,"t":1083,"event":"mousemove"},{"x":753,"y":310,"t":1100,"event":"mousemove"},{"x":753,"y":308,"t":1117,"event":"mousemove"},{"x":753,"y":307,"t":1134,"event":"mousemove"},{"x":753,"y":305,"t":1150,"event":"mousemove"}],"mouse_tracking_targets":{},"correct":true},{"rt":1381,"stimulus":"<p>How confident are you about your choice ?</p>","slider_start":50,"response":90,"trial_type":"html-slider-response","trial_index":5,"time_elapsed":12525710,"internal_node_id":"0.0-3.0-2.0"},{"rt":null,"stimulus":"\n        <div id='jspsych-image' style='position: relative; width: min(80vw, 80vh); height: min(80vw, 80vh);'>\n                \n                <div style='position: absolute; top: 40%; left: 30%; bottom: 40%; right: 30%;'><h1 style='font-size: 60px; color: green;'>Correct!</h1></div>\n                \n                <div class='jspsych-image' id='jspsych-image-0' data-choice='0' style='top: 0;     left: 0;'><img style=\"width: 100%; height: 100%;\" src='../static/human_exp_images/practice_img/00_3.png' class='correct-choice'></img></div>\n                <div class='jspsych-image' id='jspsych-image-1' data-choice='1' style='top: 0;     right: 0;'><img style=\"width: 100%; height: 100%;\" src='../static/human_exp_images/practice_img/00_2.png' class=''></img></div>\n                <div class='jspsych-image' id='jspsych-image-2' data-choice='2' style='bottom: 0;  left: 0;'><img style=\"width: 100%; height: 100%;\" src='../static/human_exp_images/practice_img/00_1.png' class=''></img></div>\n                <div class='jspsych-image' id='jspsych-image-3' data-choice='3' style='bottom: 0;  right: 0;'><img style=\"width: 100%; height: 100%;\" src='../static/human_exp_images/practice_img/00_0.png' class=''></img></div>\n\n        </div>","response":null,"trial_type":"html-keyboard-response","trial_index":6,"time_elapsed":12527215,"internal_node_id":"0.0-3.0-3.0"},{"rt":null,"trial_type":"image-click","trial_index":7,"time_elapsed":12527880,"internal_node_id":"0.0-3.0-0.1"},{"rt":1392,"response":1,"all_choices":["../static/human_exp_images/practice_img/01_1.png","../static/human_exp_images/practice_img/01_3.png","../static/human_exp_images/practice_img/01_0.png","../static/human_exp_images/practice_img/01_2.png"],"task":"response","correct_response":1,"shuffled_array":[1,3,0,2],"catch_trial":false,"trial_type":"image-click","trial_index":8,"time_elapsed":12529273,"internal_node_id":"0.0-3.0-1.1","mouse_tracking_data":[{"x":1046,"y":464,"t":0,"event":"mousemove"},{"x":1031,"y":459,"t":16,"event":"mousemove"},{"x":1017,"y":456,"t":32,"event":"mousemove"},{"x":1007,"y":452,"t":49,"event":"mousemove"},{"x":1000,"y":451,"t":66,"event":"mousemove"},{"x":995,"y":451,"t":83,"event":"mousemove"},{"x":993,"y":451,"t":119,"event":"mousemove"},{"x":995,"y":451,"t":562,"event":"mousemove"},{"x":998,"y":451,"t":568,"event":"mousemove"},{"x":1000,"y":451,"t":572,"event":"mousemove"},{"x":1005,"y":451,"t":576,"event":"mousemove"},{"x":1007,"y":451,"t":578,"event":"mousemove"},{"x":1013,"y":451,"t":594,"event":"mousemove"},{"x":1027,"y":451,"t":611,"event":"mousemove"},{"x":1041,"y":449,"t":627,"event":"mousemove"},{"x":1053,"y":446,"t":644,"event":"mousemove"},{"x":1060,"y":444,"t":661,"event":"mousemove"},{"x":1065,"y":439,"t":678,"event":"mousemove"},{"x":1068,"y":434,"t":694,"event":"mousemove"},{"x":1078,"y":423,"t":711,"event":"mousemove"},{"x":1095,"y":404,"t":727,"event":"mousemove"},{"x":1120,"y":377,"t":744,"event":"mousemove"},{"x":1150,"y":354,"t":761,"event":"mousemove"},{"x":1181,"y":328,"t":778,"event":"mousemove"},{"x":1197,"y":319,"t":795,"event":"mousemove"},{"x":1217,"y":304,"t":811,"event":"mousemove"},{"x":1229,"y":291,"t":828,"event":"mousemove"},{"x":1240,"y":281,"t":844,"event":"mousemove"},{"x":1245,"y":270,"t":861,"event":"mousemove"},{"x":1245,"y":267,"t":878,"event":"mousemove"},{"x":1246,"y":262,"t":895,"event":"mousemove"},{"x":1248,"y":257,"t":911,"event":"mousemove"}],"mouse_tracking_targets":{},"correct":true},{"rt":1747,"stimulus":"<p>How confident are you about your choice ?</p>","slider_start":50,"response":78,"trial_type":"html-slider-response","trial_index":9,"time_elapsed":12531022,"internal_node_id":"0.0-3.0-2.1"},{"rt":null,"stimulus":"\n        <div id='jspsych-image' style='position: relative; width: min(80vw, 80vh); height: min(80vw, 80vh);'>\n                \n                <div style='position: absolute; top: 40%; left: 30%; bottom: 40%; right: 30%;'><h1 style='font-size: 60px; color: green;'>Correct!</h1></div>\n                \n                <div class='jspsych-image' id='jspsych-image-0' data-choice='0' style='top: 0;     left: 0;'><img style=\"width: 100%; height: 100%;\" src='../static/human_exp_images/practice_img/01_1.png' class=''></img></div>\n                <div class='jspsych-image' id='jspsych-image-1' data-choice='1' style='top: 0;     right: 0;'><img style=\"width: 100%; height: 100%;\" src='../static/human_exp_images/practice_img/01_3.png' class='correct-choice'></img></div>\n                <div class='jspsych-image' id='jspsych-image-2' data-choice='2' style='bottom: 0;  left: 0;'><img style=\"width: 100%; height: 100%;\" src='../static/human_exp_images/practice_img/01_0.png' class=''></img></div>\n                <div class='jspsych-image' id='jspsych-image-3' data-choice='3' style='bottom: 0;  right: 0;'><img style=\"width: 100%; height: 100%;\" src='../static/human_exp_images/practice_img/01_2.png' class=''></img></div>\n\n        </div>","response":null,"trial_type":"html-keyboard-response","trial_index":10,"time_elapsed":12532524,"internal_node_id":"0.0-3.0-3.1"},{"rt":null,"trial_type":"image-click","trial_index":11,"time_elapsed":12533196,"internal_node_id":"0.0-3.0-0.2"},{"rt":1470,"response":2,"all_choices":["../static/human_exp_images/practice_img/02_0.png","../static/human_exp_images/practice_img/02_2.png","../static/human_exp_images/practice_img/02_3.png","../static/human_exp_images/practice_img/02_1.png"],"task":"response","correct_response":2,"shuffled_array":[0,2,3,1],"catch_trial":false,"trial_type":"image-click","trial_index":12,"time_elapsed":12534669,"internal_node_id":"0.0-3.0-1.2","mouse_tracking_data":[{"x":1051,"y":472,"t":1,"event":"mousemove"},{"x":1036,"y":472,"t":13,"event":"mousemove"},{"x":1016,"y":472,"t":29,"event":"mousemove"},{"x":1006,"y":474,"t":46,"event":"mousemove"},{"x":996,"y":476,"t":63,"event":"mousemove"},{"x":987,"y":477,"t":80,"event":"mousemove"},{"x":978,"y":479,"t":97,"event":"mousemove"},{"x":972,"y":481,"t":114,"event":"mousemove"},{"x":970,"y":482,"t":130,"event":"mousemove"},{"x":966,"y":484,"t":147,"event":"mousemove"},{"x":965,"y":484,"t":678,"event":"mousemove"},{"x":963,"y":484,"t":695,"event":"mousemove"},{"x":962,"y":484,"t":697,"event":"mousemove"},{"x":960,"y":484,"t":704,"event":"mousemove"},{"x":958,"y":486,"t":707,"event":"mousemove"},{"x":955,"y":488,"t":714,"event":"mousemove"},{"x":953,"y":489,"t":717,"event":"mousemove"},{"x":950,"y":491,"t":722,"event":"mousemove"},{"x":948,"y":493,"t":723,"event":"mousemove"},{"x":943,"y":496,"t":732,"event":"mousemove"},{"x":939,"y":498,"t":733,"event":"mousemove"},{"x":934,"y":503,"t":742,"event":"mousemove"},{"x":931,"y":505,"t":745,"event":"mousemove"},{"x":926,"y":508,"t":752,"event":"mousemove"},{"x":922,"y":511,"t":754,"event":"mousemove"},{"x":917,"y":517,"t":760,"event":"mousemove"},{"x":914,"y":518,"t":765,"event":"mousemove"},{"x":909,"y":522,"t":770,"event":"mousemove"},{"x":905,"y":525,"t":770,"event":"mousemove"},{"x":897,"y":531,"t":786,"event":"mousemove"},{"x":881,"y":544,"t":803,"event":"mousemove"},{"x":867,"y":560,"t":820,"event":"mousemove"},{"x":846,"y":578,"t":838,"event":"mousemove"},{"x":822,"y":601,"t":853,"event":"mousemove"},{"x":786,"y":626,"t":870,"event":"mousemove"},{"x":781,"y":631,"t":886,"event":"mousemove"},{"x":771,"y":640,"t":904,"event":"mousemove"},{"x":759,"y":648,"t":920,"event":"mousemove"},{"x":747,"y":654,"t":936,"event":"mousemove"},{"x":737,"y":657,"t":954,"event":"mousemove"},{"x":731,"y":660,"t":970,"event":"mousemove"},{"x":723,"y":662,"t":987,"event":"mousemove"},{"x":720,"y":664,"t":1003,"event":"mousemove"}],"mouse_tracking_targets":{},"correct":true},{"rt":5951,"stimulus":"<p>How confident are you about your choice ?</p>","slider_start":50,"response":90,"trial_type":"html-slider-response","trial_index":13,"time_elapsed":12540623,"internal_node_id":"0.0-3.0-2.2"},{"rt":null,"stimulus":"\n        <div id='jspsych-image' style='position: relative; width: min(80vw, 80vh); height: min(80vw, 80vh);'>\n                \n                <div style='position: absolute; top: 40%; left: 30%; bottom: 40%; right: 30%;'><h1 style='font-size: 60px; color: green;'>Correct!</h1></div>\n                \n                <div class='jspsych-image' id='jspsych-image-0' data-choice='0' style='top: 0;     left: 0;'><img style=\"width: 100%; height: 100%;\" src='../static/human_exp_images/practice_img/02_0.png' class=''></img></div>\n                <div class='jspsych-image' id='jspsych-image-1' data-choice='1' style='top: 0;     right: 0;'><img style=\"width: 100%; height: 100%;\" src='../static/human_exp_images/practice_img/02_2.png' class=''></img></div>\n                <div class='jspsych-image' id='jspsych-image-2' data-choice='2' style='bottom: 0;  left: 0;'><img style=\"width: 100%; height: 100%;\" src='../static/human_exp_images/practice_img/02_3.png' class='correct-choice'></img></div>\n                <div class='jspsych-image' id='jspsych-image-3' data-choice='3' style='bottom: 0;  right: 0;'><img style=\"width: 100%; height: 100%;\" src='../static/human_exp_images/practice_img/02_1.png' class=''></img></div>\n\n        </div>","response":null,"trial_type":"html-keyboard-response","trial_index":14,"time_elapsed":12542126,"internal_node_id":"0.0-3.0-3.2"}]