[{"rt":null,"trial_type":"image-click","trial_index":3,"time_elapsed":7837,"internal_node_id":"0.0-3.0-0.0"},{"rt":1319,"response":0,"all_choices":["../static/human_exp_images/practice_img/00_3.png","../static/human_exp_images/practice_img/00_1.png","../static/human_exp_images/practice_img/00_2.png","../static/human_exp_images/practice_img/00_0.png"],"task":"response","correct_response":0,"shuffled_array":[3,1,2,0],"catch_trial":false,"trial_type":"image-click","trial_index":4,"time_elapsed":9159,"internal_node_id":"0.0-3.0-1.0","mouse_tracking_data":[{"x":625,"y":485,"t":2,"event":"mousemove"},{"x":601,"y":485,"t":14,"event":"mousemove"},{"x":570,"y":485,"t":31,"event":"mousemove"},{"x":540,"y":480,"t":47,"event":"mousemove"},{"x":525,"y":476,"t":64,"event":"mousemove"},{"x":521,"y":474,"t":81,"event":"mousemove"},{"x":521,"y":473,"t":121,"event":"mousemove"},{"x":521,"y":471,"t":132,"event":"mousemove"},{"x":521,"y":469,"t":148,"event":"mousemove"},{"x":521,"y":467,"t":170,"event":"mousemove"},{"x":521,"y":464,"t":695,"event":"mousemove"},{"x":519,"y":463,"t":698,"event":"mousemove"},{"x":516,"y":459,"t":703,"event":"mousemove"},{"x":513,"y":456,"t":707,"event":"mousemove"},{"x":507,"y":450,"t":712,"event":"mousemove"},{"x":505,"y":446,"t":713,"event":"mousemove"},{"x":486,"y":425,"t":729,"event":"mousemove"},{"x":467,"y":401,"t":747,"event":"mousemove"},{"x":429,"y":345,"t":763,"event":"mousemove"},{"x":381,"y":274,"t":779,"event":"mousemove"},{"x":358,"y":232,"t":797,"event":"mousemove"},{"x":336,"y":200,"t":813,"event":"mousemove"},{"x":328,"y":193,"t":830,"event":"mousemove"},{"x":325,"y":189,"t":846,"event":"mousemove"},{"x":325,"y":188,"t":863,"event":"mousemove"},{"x":323,"y":188,"t":880,"event":"mousemove"},{"x":323,"y":189,"t":993,"event":"mousemove"},{"x":323,"y":191,"t":998,"event":"mousemove"},{"x":323,"y":193,"t":1008,"event":"mousemove"},{"x":325,"y":193,"t":1025,"event":"mousemove"}],"mouse_tracking_targets":{},"correct":true},{"rt":1248,"stimulus":"<p>How confident are you about your choice ?</p>","slider_start":50,"response":100,"trial_type":"html-slider-response","trial_index":5,"time_elapsed":10410,"internal_node_id":"0.0-3.0-2.0"},{"rt":null,"stimulus":"\n        <div id='jspsych-image' style='position: relative; width: min(80vw, 80vh); height: min(80vw, 80vh);'>\n                \n                <div style='position: absolute; top: 40%; left: 30%; bottom: 40%; right: 30%;'><h1 style='font-size: 60px; color: green;'>Correct!</h1></div>\n                \n                <div class='jspsych-image' id='jspsych-image-0' data-choice='0' style='top: 0;     left: 0;'><img style=\"width: 100%; height: 100%;\" src='../static/human_exp_images/practice_img/00_3.png' class='correct-choice'></img></div>\n                <div class='jspsych-image' id='jspsych-image-1' data-choice='1' style='top: 0;     right: 0;'><img style=\"width: 100%; height: 100%;\" src='../static/human_exp_images/practice_img/00_1.png' class=''></img></div>\n                <div class='jspsych-image' id='jspsych-image-2' data-choice='2' style='bottom: 0;  left: 0;'><img style=\"width: 100%; height: 100%;\" src='../static/human_exp_images/practice_img/00_2.png' class=''></img></div>\n                <div class='jspsych-image' id='jspsych-image-3' data-choice='3' style='bottom: 0;  right: 0;'><img style=\"width: 100%; height: 100%;\" src='../static/human_exp_images/practice_img/00_0.png' class=''></img></div>\n\n        </div>","response":null,"trial_type":"html-keyboard-response","trial_index":6,"time_elapsed":11914,"internal_node_id":"0.0-3.0-3.0"},{"rt":null,"trial_type":"image-click","trial_index":7,"time_elapsed":12423,"internal_node_id":"0.0-3.0-0.1"},{"rt":1162,"response":2,"all_choices":["../static/human_exp_images/practice_img/01_1.png","../static/human_exp_images/practice_img/01_0.png","../static/human_exp_images/practice_img/01_3.png","../static/human_exp_images/practice_img/01_2.png"],"task":"response","correct_response":2,"shuffled_array":[1,0,3,2],"catch_trial":false,"trial_type":"image-click","trial_index":8,"time_elapsed":13588,"internal_node_id":"0.0-3.0-1.1","mouse_tracking_data":[{"x":498,"y":365,"t":1,"event":"mousemove"},{"x":503,"y":374,"t":14,"event":"mousemove"},{"x":507,"y":386,"t":31,"event":"mousemove"},{"x":510,"y":394,"t":47,"event":"mousemove"},{"x":513,"y":401,"t":65,"event":"mousemove"},{"x":522,"y":415,"t":80,"event":"mousemove"},{"x":529,"y":427,"t":98,"event":"mousemove"},{"x":536,"y":433,"t":113,"event":"mousemove"},{"x":542,"y":442,"t":131,"event":"mousemove"},{"x":546,"y":445,"t":148,"event":"mousemove"},{"x":548,"y":447,"t":165,"event":"mousemove"},{"x":549,"y":447,"t":182,"event":"mousemove"},{"x":551,"y":447,"t":198,"event":"mousemove"},{"x":551,"y":449,"t":222,"event":"mousemove"},{"x":551,"y":450,"t":651,"event":"mousemove"},{"x":551,"y":452,"t":661,"event":"mousemove"},{"x":551,"y":454,"t":665,"event":"mousemove"},{"x":551,"y":455,"t":669,"event":"mousemove"},{"x":551,"y":457,"t":680,"event":"mousemove"},{"x":549,"y":457,"t":688,"event":"mousemove"},{"x":549,"y":459,"t":689,"event":"mousemove"},{"x":548,"y":459,"t":705,"event":"mousemove"},{"x":544,"y":460,"t":722,"event":"mousemove"},{"x":539,"y":464,"t":739,"event":"mousemove"},{"x":527,"y":476,"t":756,"event":"mousemove"},{"x":510,"y":494,"t":772,"event":"mousemove"},{"x":496,"y":512,"t":789,"event":"mousemove"},{"x":487,"y":524,"t":805,"event":"mousemove"},{"x":477,"y":540,"t":822,"event":"mousemove"},{"x":464,"y":552,"t":839,"event":"mousemove"},{"x":452,"y":567,"t":856,"event":"mousemove"},{"x":439,"y":583,"t":872,"event":"mousemove"},{"x":430,"y":589,"t":888,"event":"mousemove"},{"x":414,"y":607,"t":906,"event":"mousemove"},{"x":407,"y":616,"t":934,"event":"mousemove"},{"x":400,"y":627,"t":939,"event":"mousemove"},{"x":393,"y":639,"t":955,"event":"mousemove"},{"x":384,"y":649,"t":973,"event":"mousemove"},{"x":379,"y":656,"t":989,"event":"mousemove"},{"x":376,"y":661,"t":1005,"event":"mousemove"},{"x":371,"y":664,"t":1022,"event":"mousemove"},{"x":371,"y":666,"t":1038,"event":"mousemove"},{"x":371,"y":668,"t":1055,"event":"mousemove"}],"mouse_tracking_targets":{},"correct":true},{"rt":4294,"stimulus":"<p>How confident are you about your choice ?</p>","slider_start":50,"response":99,"trial_type":"html-slider-response","trial_index":9,"time_elapsed":17884,"internal_node_id":"0.0-3.0-2.1"},{"rt":null,"stimulus":"\n        <div id='jspsych-image' style='position: relative; width: min(80vw, 80vh); height: min(80vw, 80vh);'>\n                \n                <div style='position: absolute; top: 40%; left: 30%; bottom: 40%; right: 30%;'><h1 style='font-size: 60px; color: green;'>Correct!</h1></div>\n                \n                <div class='jspsych-image' id='jspsych-image-0' data-choice='0' style='top: 0;     left: 0;'><img style=\"width: 100%; height: 100%;\" src='../static/human_exp_images/practice_img/01_1.png' class=''></img></div>\n                <div class='jspsych-image' id='jspsych-image-1' data-choice='1' style='top: 0;     right: 0;'><img style=\"width: 100%; height: 100%;\" src='../static/human_exp_images/practice_img/01_0.png' class=''></img></div>\n                <div class='jspsych-image' id='jspsych-image-2' data-choice='2' style='bottom: 0;  left: 0;'><img style=\"width: 100%; height: 100%;\" src='../static/human_exp_images/practice_img/01_3.png' class='correct-choice'></img></div>\n                <div class='jspsych-image' id='jspsych-image-3' data-choice='3' style='bottom: 0;  right: 0;'><img style=\"width: 100%; height: 100%;\" src='../static/human_exp_images/practice_img/01_2.png' class=''></img></div>\n\n        </div>","response":null,"trial_type":"html-keyboard-response","trial_index":10,"time_elapsed":19385,"internal_node_id":"0.0-3.0-3.1"},{"rt":null,"trial_type":"image-click","trial_index":11,"time_elapsed":20195,"internal_node_id":"0.0-3.0-0.2"},{"rt":1027,"response":3,"all_choices":["../static/human_exp_images/practice_img/02_2.png","../static/human_exp_images/practice_img/02_1.png","../static/human_exp_images/practice_img/02_0.png","../static/human_exp_images/practice_img/02_3.png"],"task":"response","correct_response":3,"shuffled_array":[2,1,0,3],"catch_trial":false,"trial_type":"image-click","trial_index":12,"time_elapsed":21224,"internal_node_id":"0.0-3.0-1.2","mouse_tracking_data":[{"x":645,"y":470,"t":1,"event":"mousemove"},{"x":644,"y":470,"t":13,"event":"mousemove"},{"x":640,"y":470,"t":29,"event":"mousemove"},{"x":639,"y":470,"t":46,"event":"mousemove"},{"x":635,"y":470,"t":63,"event":"mousemove"},{"x":632,"y":470,"t":79,"event":"mousemove"},{"x":627,"y":470,"t":96,"event":"mousemove"},{"x":621,"y":470,"t":114,"event":"mousemove"},{"x":618,"y":470,"t":130,"event":"mousemove"},{"x":615,"y":470,"t":147,"event":"mousemove"},{"x":610,"y":470,"t":163,"event":"mousemove"},{"x":606,"y":470,"t":180,"event":"mousemove"},{"x":601,"y":470,"t":197,"event":"mousemove"},{"x":598,"y":470,"t":214,"event":"mousemove"},{"x":592,"y":470,"t":229,"event":"mousemove"},{"x":587,"y":470,"t":247,"event":"mousemove"},{"x":584,"y":470,"t":263,"event":"mousemove"},{"x":582,"y":470,"t":280,"event":"mousemove"},{"x":580,"y":470,"t":297,"event":"mousemove"},{"x":579,"y":470,"t":314,"event":"mousemove"},{"x":579,"y":472,"t":645,"event":"mousemove"},{"x":579,"y":474,"t":648,"event":"mousemove"},{"x":590,"y":499,"t":663,"event":"mousemove"},{"x":608,"y":535,"t":680,"event":"mousemove"},{"x":613,"y":547,"t":697,"event":"mousemove"},{"x":626,"y":571,"t":714,"event":"mousemove"},{"x":641,"y":597,"t":730,"event":"mousemove"},{"x":660,"y":616,"t":747,"event":"mousemove"},{"x":674,"y":628,"t":764,"event":"mousemove"},{"x":693,"y":641,"t":781,"event":"mousemove"},{"x":696,"y":643,"t":798,"event":"mousemove"},{"x":703,"y":645,"t":814,"event":"mousemove"},{"x":705,"y":646,"t":830,"event":"mousemove"}],"mouse_tracking_targets":{},"correct":true},{"rt":2324,"stimulus":"<p>How confident are you about your choice ?</p>","slider_start":50,"response":99,"trial_type":"html-slider-response","trial_index":13,"time_elapsed":23549,"internal_node_id":"0.0-3.0-2.2"},{"rt":null,"stimulus":"\n        <div id='jspsych-image' style='position: relative; width: min(80vw, 80vh); height: min(80vw, 80vh);'>\n                \n                <div style='position: absolute; top: 40%; left: 30%; bottom: 40%; right: 30%;'><h1 style='font-size: 60px; color: green;'>Correct!</h1></div>\n                \n                <div class='jspsych-image' id='jspsych-image-0' data-choice='0' style='top: 0;     left: 0;'><img style=\"width: 100%; height: 100%;\" src='../static/human_exp_images/practice_img/02_2.png' class=''></img></div>\n                <div class='jspsych-image' id='jspsych-image-1' data-choice='1' style='top: 0;     right: 0;'><img style=\"width: 100%; height: 100%;\" src='../static/human_exp_images/practice_img/02_1.png' class=''></img></div>\n                <div class='jspsych-image' id='jspsych-image-2' data-choice='2' style='bottom: 0;  left: 0;'><img style=\"width: 100%; height: 100%;\" src='../static/human_exp_images/practice_img/02_0.png' class=''></img></div>\n                <div class='jspsych-image' id='jspsych-image-3' data-choice='3' style='bottom: 0;  right: 0;'><img style=\"width: 100%; height: 100%;\" src='../static/human_exp_images/practice_img/02_3.png' class='correct-choice'></img></div>\n\n        </div>","response":null,"trial_type":"html-keyboard-response","trial_index":14,"time_elapsed":25050,"internal_node_id":"0.0-3.0-3.2"}]