[{"rt":1190,"stimulus":"<p style='font-size: 40px'>Welcome to the experiment.</p><p style='font-size: 30px'>Press any key to begin.</p>","response":" ","trial_type":"html-keyboard-response","trial_index":0,"time_elapsed":1190,"internal_node_id":"0.0-0.0"},{"rt":504,"stimulus":"\n    <p>In this experiment, 4 images will appear on the screen. 3 out of 4 images were generated with a certain rule while one image (the odd one out) does not respect this rule.</p>\n    <p>Select the odd one out by clicking on the image.</p>\n    <p>Following your choice, you will be asked to rate how confident you were about your choice on a scale from 1 to 100. Then, you will receive feedback on the trial.</p>\n    <p>For each rule you will perform 21 trials. You will be notified at each rule change.</p>\n    <p>The following 3 trials will allow you to get familiar with the odd-one-out task. The experiment starts after this practice session.</p>\n    \n    <p>Press any button to continue</p>\n    <div style='margin: auto; position: relative; width: 400px; height: 400px;'>\n        <div style='position: absolute; top: 0;     left: 0; '><img src='../static/img/square.png'></img></div>\n        <div style='position: absolute; top: 0;     right: 0;'><img src='../static/img/square.png'></img></div>\n        <div style='position: absolute; bottom: 0;  left: 0; '><img src='../static/img/square.png'></img></div>\n        <div style='position: absolute; bottom: 0;  right: 0;'><img src='../static/img/square.png'></img></div>\n    </div>\n","response":" ","trial_type":"html-keyboard-response","trial_index":1,"time_elapsed":1698,"internal_node_id":"0.0-1.0"},{"success":true,"timeout":false,"failed_images":[],"failed_audio":[],"failed_video":[],"trial_type":"preload","trial_index":2,"time_elapsed":3746,"internal_node_id":"0.0-2.0"},{"rt":null,"trial_type":"image-click","trial_index":3,"time_elapsed":4264,"internal_node_id":"0.0-3.0-0.0"},{"rt":857,"response":0,"all_choices":["../static/human_exp_images/practice_img/00_3.png","../static/human_exp_images/practice_img/00_1.png","../static/human_exp_images/practice_img/00_0.png","../static/human_exp_images/practice_img/00_2.png"],"task":"response","correct_response":0,"shuffled_array":[3,1,0,2],"catch_trial":false,"trial_type":"image-click","trial_index":4,"time_elapsed":5124,"internal_node_id":"0.0-3.0-1.0","mouse_tracking_data":[{"x":1048,"y":501,"t":1,"event":"mousemove"},{"x":1041,"y":491,"t":14,"event":"mousemove"},{"x":1032,"y":483,"t":30,"event":"mousemove"},{"x":1019,"y":471,"t":47,"event":"mousemove"},{"x":1005,"y":460,"t":63,"event":"mousemove"},{"x":993,"y":454,"t":80,"event":"mousemove"},{"x":988,"y":450,"t":97,"event":"mousemove"},{"x":985,"y":450,"t":114,"event":"mousemove"},{"x":983,"y":449,"t":539,"event":"mousemove"},{"x":981,"y":447,"t":547,"event":"mousemove"},{"x":980,"y":447,"t":549,"event":"mousemove"},{"x":971,"y":440,"t":565,"event":"mousemove"},{"x":958,"y":429,"t":582,"event":"mousemove"},{"x":930,"y":412,"t":598,"event":"mousemove"},{"x":895,"y":395,"t":616,"event":"mousemove"},{"x":863,"y":383,"t":631,"event":"mousemove"},{"x":846,"y":376,"t":648,"event":"mousemove"},{"x":834,"y":369,"t":666,"event":"mousemove"},{"x":832,"y":364,"t":682,"event":"mousemove"},{"x":829,"y":360,"t":699,"event":"mousemove"},{"x":823,"y":347,"t":715,"event":"mousemove"},{"x":818,"y":335,"t":732,"event":"mousemove"},{"x":815,"y":328,"t":748,"event":"mousemove"},{"x":811,"y":319,"t":765,"event":"mousemove"},{"x":810,"y":318,"t":782,"event":"mousemove"},{"x":810,"y":313,"t":799,"event":"mousemove"},{"x":808,"y":311,"t":815,"event":"mousemove"},{"x":808,"y":309,"t":838,"event":"mousemove"}],"mouse_tracking_targets":{},"correct":true},{"rt":1193,"stimulus":"<p>How confident are you about your choice ?</p>","slider_start":50,"response":91,"trial_type":"html-slider-response","trial_index":5,"time_elapsed":6318,"internal_node_id":"0.0-3.0-2.0"},{"rt":null,"stimulus":"\n        <div id='jspsych-image' style='position: relative; width: min(80vw, 80vh); height: min(80vw, 80vh);'>\n                \n                <div style='position: absolute; top: 40%; left: 30%; bottom: 40%; right: 30%;'><h1 style='font-size: 60px; color: green;'>Correct!</h1></div>\n                \n                <div class='jspsych-image' id='jspsych-image-0' data-choice='0' style='top: 0;     left: 0;'><img style=\"width: 100%; height: 100%;\" src='../static/human_exp_images/practice_img/00_3.png' class='correct-choice'></img></div>\n                <div class='jspsych-image' id='jspsych-image-1' data-choice='1' style='top: 0;     right: 0;'><img style=\"width: 100%; height: 100%;\" src='../static/human_exp_images/practice_img/00_1.png' class=''></img></div>\n                <div class='jspsych-image' id='jspsych-image-2' data-choice='2' style='bottom: 0;  left: 0;'><img style=\"width: 100%; height: 100%;\" src='../static/human_exp_images/practice_img/00_0.png' class=''></img></div>\n                <div class='jspsych-image' id='jspsych-image-3' data-choice='3' style='bottom: 0;  right: 0;'><img style=\"width: 100%; height: 100%;\" src='../static/human_exp_images/practice_img/00_2.png' class=''></img></div>\n\n        </div>","response":null,"trial_type":"html-keyboard-response","trial_index":6,"time_elapsed":7822,"internal_node_id":"0.0-3.0-3.0"},{"rt":null,"trial_type":"image-click","trial_index":7,"time_elapsed":7824,"internal_node_id":"0.0-3.0-0.1"},{"rt":882,"response":1,"all_choices":["../static/human_exp_images/practice_img/01_0.png","../static/human_exp_images/practice_img/01_3.png","../static/human_exp_images/practice_img/01_1.png","../static/human_exp_images/practice_img/01_2.png"],"task":"response","correct_response":1,"shuffled_array":[0,3,1,2],"catch_trial":false,"trial_type":"image-click","trial_index":8,"time_elapsed":8710,"internal_node_id":"0.0-3.0-1.1","mouse_tracking_data":[{"x":955,"y":451,"t":499,"event":"mousemove"},{"x":957,"y":452,"t":508,"event":"mousemove"},{"x":959,"y":454,"t":516,"event":"mousemove"},{"x":959,"y":456,"t":521,"event":"mousemove"},{"x":962,"y":456,"t":526,"event":"mousemove"},{"x":964,"y":456,"t":531,"event":"mousemove"},{"x":966,"y":456,"t":535,"event":"mousemove"},{"x":967,"y":456,"t":544,"event":"mousemove"},{"x":969,"y":456,"t":546,"event":"mousemove"},{"x":971,"y":456,"t":562,"event":"mousemove"},{"x":976,"y":456,"t":580,"event":"mousemove"},{"x":983,"y":456,"t":595,"event":"mousemove"},{"x":995,"y":451,"t":612,"event":"mousemove"},{"x":1010,"y":440,"t":629,"event":"mousemove"},{"x":1029,"y":435,"t":646,"event":"mousemove"},{"x":1053,"y":425,"t":663,"event":"mousemove"},{"x":1063,"y":421,"t":678,"event":"mousemove"},{"x":1082,"y":411,"t":696,"event":"mousemove"},{"x":1097,"y":398,"t":712,"event":"mousemove"},{"x":1110,"y":384,"t":729,"event":"mousemove"},{"x":1120,"y":366,"t":745,"event":"mousemove"},{"x":1127,"y":354,"t":762,"event":"mousemove"},{"x":1134,"y":346,"t":780,"event":"mousemove"},{"x":1145,"y":329,"t":795,"event":"mousemove"},{"x":1157,"y":315,"t":812,"event":"mousemove"},{"x":1161,"y":306,"t":829,"event":"mousemove"},{"x":1161,"y":304,"t":846,"event":"mousemove"},{"x":1162,"y":304,"t":871,"event":"mousemove"}],"mouse_tracking_targets":{},"correct":true},{"rt":809,"stimulus":"<p>How confident are you about your choice ?</p>","slider_start":50,"response":94,"trial_type":"html-slider-response","trial_index":9,"time_elapsed":9521,"internal_node_id":"0.0-3.0-2.1"},{"rt":null,"stimulus":"\n        <div id='jspsych-image' style='position: relative; width: min(80vw, 80vh); height: min(80vw, 80vh);'>\n                \n                <div style='position: absolute; top: 40%; left: 30%; bottom: 40%; right: 30%;'><h1 style='font-size: 60px; color: green;'>Correct!</h1></div>\n                \n                <div class='jspsych-image' id='jspsych-image-0' data-choice='0' style='top: 0;     left: 0;'><img style=\"width: 100%; height: 100%;\" src='../static/human_exp_images/practice_img/01_0.png' class=''></img></div>\n                <div class='jspsych-image' id='jspsych-image-1' data-choice='1' style='top: 0;     right: 0;'><img style=\"width: 100%; height: 100%;\" src='../static/human_exp_images/practice_img/01_3.png' class='correct-choice'></img></div>\n                <div class='jspsych-image' id='jspsych-image-2' data-choice='2' style='bottom: 0;  left: 0;'><img style=\"width: 100%; height: 100%;\" src='../static/human_exp_images/practice_img/01_1.png' class=''></img></div>\n                <div class='jspsych-image' id='jspsych-image-3' data-choice='3' style='bottom: 0;  right: 0;'><img style=\"width: 100%; height: 100%;\" src='../static/human_exp_images/practice_img/01_2.png' class=''></img></div>\n\n        </div>","response":null,"trial_type":"html-keyboard-response","trial_index":10,"time_elapsed":11023,"internal_node_id":"0.0-3.0-3.1"},{"rt":null,"trial_type":"image-click","trial_index":11,"time_elapsed":11599,"internal_node_id":"0.0-3.0-0.2"},{"rt":979,"response":2,"all_choices":["../static/human_exp_images/practice_img/02_2.png","../static/human_exp_images/practice_img/02_0.png","../static/human_exp_images/practice_img/02_3.png","../static/human_exp_images/practice_img/02_1.png"],"task":"response","correct_response":2,"shuffled_array":[2,0,3,1],"catch_trial":false,"trial_type":"image-click","trial_index":12,"time_elapsed":12581,"internal_node_id":"0.0-3.0-1.2","mouse_tracking_data":[{"x":1034,"y":480,"t":2,"event":"mousemove"},{"x":1017,"y":475,"t":13,"event":"mousemove"},{"x":1007,"y":470,"t":30,"event":"mousemove"},{"x":1003,"y":466,"t":47,"event":"mousemove"},{"x":1002,"y":466,"t":63,"event":"mousemove"},{"x":1002,"y":465,"t":121,"event":"mousemove"},{"x":1002,"y":463,"t":258,"event":"mousemove"},{"x":1002,"y":461,"t":578,"event":"mousemove"},{"x":998,"y":461,"t":587,"event":"mousemove"},{"x":996,"y":461,"t":589,"event":"mousemove"},{"x":983,"y":461,"t":605,"event":"mousemove"},{"x":965,"y":461,"t":621,"event":"mousemove"},{"x":953,"y":461,"t":638,"event":"mousemove"},{"x":934,"y":479,"t":655,"event":"mousemove"},{"x":910,"y":506,"t":671,"event":"mousemove"},{"x":886,"y":533,"t":688,"event":"mousemove"},{"x":852,"y":574,"t":705,"event":"mousemove"},{"x":836,"y":600,"t":722,"event":"mousemove"},{"x":815,"y":629,"t":738,"event":"mousemove"},{"x":799,"y":649,"t":754,"event":"mousemove"},{"x":781,"y":673,"t":772,"event":"mousemove"},{"x":769,"y":689,"t":787,"event":"mousemove"},{"x":760,"y":701,"t":805,"event":"mousemove"},{"x":751,"y":711,"t":822,"event":"mousemove"},{"x":742,"y":721,"t":838,"event":"mousemove"},{"x":737,"y":726,"t":855,"event":"mousemove"},{"x":734,"y":728,"t":872,"event":"mousemove"}],"mouse_tracking_targets":{},"correct":true},{"rt":1093,"stimulus":"<p>How confident are you about your choice ?</p>","slider_start":50,"response":90,"trial_type":"html-slider-response","trial_index":13,"time_elapsed":13678,"internal_node_id":"0.0-3.0-2.2"},{"rt":null,"stimulus":"\n        <div id='jspsych-image' style='position: relative; width: min(80vw, 80vh); height: min(80vw, 80vh);'>\n                \n                <div style='position: absolute; top: 40%; left: 30%; bottom: 40%; right: 30%;'><h1 style='font-size: 60px; color: green;'>Correct!</h1></div>\n                \n                <div class='jspsych-image' id='jspsych-image-0' data-choice='0' style='top: 0;     left: 0;'><img style=\"width: 100%; height: 100%;\" src='../static/human_exp_images/practice_img/02_2.png' class=''></img></div>\n                <div class='jspsych-image' id='jspsych-image-1' data-choice='1' style='top: 0;     right: 0;'><img style=\"width: 100%; height: 100%;\" src='../static/human_exp_images/practice_img/02_0.png' class=''></img></div>\n                <div class='jspsych-image' id='jspsych-image-2' data-choice='2' style='bottom: 0;  left: 0;'><img style=\"width: 100%; height: 100%;\" src='../static/human_exp_images/practice_img/02_3.png' class='correct-choice'></img></div>\n                <div class='jspsych-image' id='jspsych-image-3' data-choice='3' style='bottom: 0;  right: 0;'><img style=\"width: 100%; height: 100%;\" src='../static/human_exp_images/practice_img/02_1.png' class=''></img></div>\n\n        </div>","response":null,"trial_type":"html-keyboard-response","trial_index":14,"time_elapsed":15183,"internal_node_id":"0.0-3.0-3.2"}]