[{"rt":1494,"stimulus":"<p style='font-size: 40px'>Welcome to the experiment.</p><p style='font-size: 30px'>Press any key to begin.</p>","response":" ","trial_type":"html-keyboard-response","trial_index":0,"time_elapsed":1493,"internal_node_id":"0.0-0.0"},{"rt":518,"stimulus":"\n    <p>In this experiment, 4 images will appear on the screen. 3 out of 4 images were generated with a certain rule while one image (the odd one out) does not respect this rule.</p>\n    <p>Select the odd one out by clicking on the image.</p>\n    <p>Following your choice, you will be asked to rate how confident you were about your choice on a scale from 1 to 100. Then, you will receive feedback on the trial.</p>\n    <p>For each rule you will perform 21 trials. You will be notified at each rule change.</p>\n    <p>The following 3 trials will allow you to get familiar with the odd-one-out task. The experiment starts after this practice session.</p>\n    \n    <p>Press any button to continue</p>\n    <div style='margin: auto; position: relative; width: 400px; height: 400px;'>\n        <div style='position: absolute; top: 0;     left: 0; '><img src='../static/img/square.png'></img></div>\n        <div style='position: absolute; top: 0;     right: 0;'><img src='../static/img/square.png'></img></div>\n        <div style='position: absolute; bottom: 0;  left: 0; '><img src='../static/img/square.png'></img></div>\n        <div style='position: absolute; bottom: 0;  right: 0;'><img src='../static/img/square.png'></img></div>\n    </div>\n","response":" ","trial_type":"html-keyboard-response","trial_index":1,"time_elapsed":2011,"internal_node_id":"0.0-1.0"},{"success":true,"timeout":false,"failed_images":[],"failed_audio":[],"failed_video":[],"trial_type":"preload","trial_index":2,"time_elapsed":4226,"internal_node_id":"0.0-2.0"},{"rt":null,"trial_type":"image-click","trial_index":3,"time_elapsed":4781,"internal_node_id":"0.0-3.0-0.0"},{"rt":1019,"response":3,"all_choices":["../static/human_exp_images/practice_img/00_0.png","../static/human_exp_images/practice_img/00_2.png","../static/human_exp_images/practice_img/00_1.png","../static/human_exp_images/practice_img/00_3.png"],"task":"response","correct_response":3,"shuffled_array":[0,2,1,3],"catch_trial":false,"trial_type":"image-click","trial_index":4,"time_elapsed":5804,"internal_node_id":"0.0-3.0-1.0","mouse_tracking_data":[{"x":1017,"y":375,"t":1,"event":"mousemove"},{"x":1013,"y":398,"t":12,"event":"mousemove"},{"x":998,"y":452,"t":29,"event":"mousemove"},{"x":989,"y":478,"t":47,"event":"mousemove"},{"x":983,"y":490,"t":63,"event":"mousemove"},{"x":977,"y":503,"t":80,"event":"mousemove"},{"x":977,"y":506,"t":96,"event":"mousemove"},{"x":975,"y":508,"t":113,"event":"mousemove"},{"x":975,"y":505,"t":490,"event":"mousemove"},{"x":975,"y":503,"t":493,"event":"mousemove"},{"x":975,"y":496,"t":498,"event":"mousemove"},{"x":975,"y":493,"t":504,"event":"mousemove"},{"x":975,"y":486,"t":507,"event":"mousemove"},{"x":967,"y":462,"t":523,"event":"mousemove"},{"x":946,"y":425,"t":541,"event":"mousemove"},{"x":926,"y":396,"t":556,"event":"mousemove"},{"x":918,"y":381,"t":574,"event":"mousemove"},{"x":916,"y":378,"t":590,"event":"mousemove"},{"x":916,"y":376,"t":617,"event":"mousemove"},{"x":923,"y":376,"t":653,"event":"mousemove"},{"x":944,"y":376,"t":670,"event":"mousemove"},{"x":986,"y":396,"t":687,"event":"mousemove"},{"x":1053,"y":465,"t":703,"event":"mousemove"},{"x":1090,"y":524,"t":720,"event":"mousemove"},{"x":1125,"y":591,"t":737,"event":"mousemove"},{"x":1144,"y":627,"t":754,"event":"mousemove"},{"x":1159,"y":653,"t":770,"event":"mousemove"},{"x":1184,"y":692,"t":788,"event":"mousemove"},{"x":1199,"y":718,"t":803,"event":"mousemove"},{"x":1206,"y":729,"t":821,"event":"mousemove"},{"x":1208,"y":730,"t":837,"event":"mousemove"},{"x":1217,"y":734,"t":854,"event":"mousemove"},{"x":1222,"y":737,"t":871,"event":"mousemove"},{"x":1225,"y":739,"t":887,"event":"mousemove"},{"x":1222,"y":739,"t":1008,"event":"mousemove"},{"x":1220,"y":739,"t":1019,"event":"mousemove"}],"mouse_tracking_targets":{},"correct":true},{"rt":942,"stimulus":"<p>How confident are you about your choice ?</p>","slider_start":50,"response":89,"trial_type":"html-slider-response","trial_index":5,"time_elapsed":6749,"internal_node_id":"0.0-3.0-2.0"},{"rt":null,"stimulus":"\n        <div id='jspsych-image' style='position: relative; width: min(80vw, 80vh); height: min(80vw, 80vh);'>\n                \n                <div style='position: absolute; top: 40%; left: 30%; bottom: 40%; right: 30%;'><h1 style='font-size: 60px; color: green;'>Correct!</h1></div>\n                \n                <div class='jspsych-image' id='jspsych-image-0' data-choice='0' style='top: 0;     left: 0;'><img style=\"width: 100%; height: 100%;\" src='../static/human_exp_images/practice_img/00_0.png' class=''></img></div>\n                <div class='jspsych-image' id='jspsych-image-1' data-choice='1' style='top: 0;     right: 0;'><img style=\"width: 100%; height: 100%;\" src='../static/human_exp_images/practice_img/00_2.png' class=''></img></div>\n                <div class='jspsych-image' id='jspsych-image-2' data-choice='2' style='bottom: 0;  left: 0;'><img style=\"width: 100%; height: 100%;\" src='../static/human_exp_images/practice_img/00_1.png' class=''></img></div>\n                <div class='jspsych-image' id='jspsych-image-3' data-choice='3' style='bottom: 0;  right: 0;'><img style=\"width: 100%; height: 100%;\" src='../static/human_exp_images/practice_img/00_3.png' class='correct-choice'></img></div>\n\n        </div>","response":null,"trial_type":"html-keyboard-response","trial_index":6,"time_elapsed":8253,"internal_node_id":"0.0-3.0-3.0"},{"rt":null,"trial_type":"image-click","trial_index":7,"time_elapsed":8256,"internal_node_id":"0.0-3.0-0.1"},{"rt":1154,"response":1,"all_choices":["../static/human_exp_images/practice_img/01_2.png","../static/human_exp_images/practice_img/01_3.png","../static/human_exp_images/practice_img/01_1.png","../static/human_exp_images/practice_img/01_0.png"],"task":"response","correct_response":1,"shuffled_array":[2,3,1,0],"catch_trial":false,"trial_type":"image-click","trial_index":8,"time_elapsed":9415,"internal_node_id":"0.0-3.0-1.1","mouse_tracking_data":[{"x":973,"y":515,"t":360,"event":"mousemove"},{"x":973,"y":518,"t":376,"event":"mousemove"},{"x":973,"y":520,"t":394,"event":"mousemove"},{"x":975,"y":520,"t":409,"event":"mousemove"},{"x":975,"y":517,"t":671,"event":"mousemove"},{"x":975,"y":499,"t":685,"event":"mousemove"},{"x":975,"y":475,"t":702,"event":"mousemove"},{"x":975,"y":466,"t":719,"event":"mousemove"},{"x":973,"y":452,"t":736,"event":"mousemove"},{"x":973,"y":448,"t":752,"event":"mousemove"},{"x":973,"y":445,"t":769,"event":"mousemove"},{"x":973,"y":438,"t":785,"event":"mousemove"},{"x":975,"y":421,"t":803,"event":"mousemove"},{"x":994,"y":402,"t":819,"event":"mousemove"},{"x":1036,"y":364,"t":836,"event":"mousemove"},{"x":1068,"y":337,"t":852,"event":"mousemove"},{"x":1090,"y":318,"t":870,"event":"mousemove"},{"x":1114,"y":298,"t":886,"event":"mousemove"},{"x":1133,"y":275,"t":902,"event":"mousemove"},{"x":1155,"y":253,"t":919,"event":"mousemove"},{"x":1176,"y":240,"t":936,"event":"mousemove"},{"x":1186,"y":230,"t":953,"event":"mousemove"},{"x":1195,"y":227,"t":969,"event":"mousemove"},{"x":1200,"y":222,"t":986,"event":"mousemove"},{"x":1204,"y":220,"t":1002,"event":"mousemove"},{"x":1204,"y":218,"t":1052,"event":"mousemove"}],"mouse_tracking_targets":{},"correct":true},{"rt":814,"stimulus":"<p>How confident are you about your choice ?</p>","slider_start":50,"response":85,"trial_type":"html-slider-response","trial_index":9,"time_elapsed":10232,"internal_node_id":"0.0-3.0-2.1"},{"rt":null,"stimulus":"\n        <div id='jspsych-image' style='position: relative; width: min(80vw, 80vh); height: min(80vw, 80vh);'>\n                \n                <div style='position: absolute; top: 40%; left: 30%; bottom: 40%; right: 30%;'><h1 style='font-size: 60px; color: green;'>Correct!</h1></div>\n                \n                <div class='jspsych-image' id='jspsych-image-0' data-choice='0' style='top: 0;     left: 0;'><img style=\"width: 100%; height: 100%;\" src='../static/human_exp_images/practice_img/01_2.png' class=''></img></div>\n                <div class='jspsych-image' id='jspsych-image-1' data-choice='1' style='top: 0;     right: 0;'><img style=\"width: 100%; height: 100%;\" src='../static/human_exp_images/practice_img/01_3.png' class='correct-choice'></img></div>\n                <div class='jspsych-image' id='jspsych-image-2' data-choice='2' style='bottom: 0;  left: 0;'><img style=\"width: 100%; height: 100%;\" src='../static/human_exp_images/practice_img/01_1.png' class=''></img></div>\n                <div class='jspsych-image' id='jspsych-image-3' data-choice='3' style='bottom: 0;  right: 0;'><img style=\"width: 100%; height: 100%;\" src='../static/human_exp_images/practice_img/01_0.png' class=''></img></div>\n\n        </div>","response":null,"trial_type":"html-keyboard-response","trial_index":10,"time_elapsed":11737,"internal_node_id":"0.0-3.0-3.1"},{"rt":null,"trial_type":"image-click","trial_index":11,"time_elapsed":12221,"internal_node_id":"0.0-3.0-0.2"},{"rt":888,"response":1,"all_choices":["../static/human_exp_images/practice_img/02_2.png","../static/human_exp_images/practice_img/02_3.png","../static/human_exp_images/practice_img/02_0.png","../static/human_exp_images/practice_img/02_1.png"],"task":"response","correct_response":1,"shuffled_array":[2,3,0,1],"catch_trial":false,"trial_type":"image-click","trial_index":12,"time_elapsed":13111,"internal_node_id":"0.0-3.0-1.2","mouse_tracking_data":[{"x":1049,"y":488,"t":0,"event":"mousemove"},{"x":1034,"y":481,"t":14,"event":"mousemove"},{"x":1025,"y":476,"t":32,"event":"mousemove"},{"x":1022,"y":476,"t":48,"event":"mousemove"},{"x":1020,"y":476,"t":65,"event":"mousemove"},{"x":1018,"y":476,"t":157,"event":"mousemove"},{"x":1018,"y":475,"t":192,"event":"mousemove"},{"x":1018,"y":473,"t":475,"event":"mousemove"},{"x":1018,"y":471,"t":501,"event":"mousemove"},{"x":1018,"y":469,"t":512,"event":"mousemove"},{"x":1018,"y":468,"t":528,"event":"mousemove"},{"x":1018,"y":466,"t":538,"event":"mousemove"},{"x":1018,"y":464,"t":547,"event":"mousemove"},{"x":1018,"y":461,"t":557,"event":"mousemove"},{"x":1018,"y":459,"t":558,"event":"mousemove"},{"x":1018,"y":456,"t":566,"event":"mousemove"},{"x":1018,"y":454,"t":568,"event":"mousemove"},{"x":1024,"y":449,"t":575,"event":"mousemove"},{"x":1025,"y":446,"t":580,"event":"mousemove"},{"x":1029,"y":440,"t":585,"event":"mousemove"},{"x":1040,"y":425,"t":601,"event":"mousemove"},{"x":1061,"y":404,"t":618,"event":"mousemove"},{"x":1083,"y":383,"t":634,"event":"mousemove"},{"x":1103,"y":364,"t":651,"event":"mousemove"},{"x":1115,"y":350,"t":668,"event":"mousemove"},{"x":1123,"y":341,"t":685,"event":"mousemove"},{"x":1132,"y":334,"t":701,"event":"mousemove"},{"x":1137,"y":331,"t":718,"event":"mousemove"},{"x":1137,"y":329,"t":734,"event":"mousemove"},{"x":1141,"y":329,"t":751,"event":"mousemove"},{"x":1146,"y":325,"t":768,"event":"mousemove"},{"x":1151,"y":324,"t":784,"event":"mousemove"},{"x":1154,"y":322,"t":802,"event":"mousemove"},{"x":1158,"y":320,"t":817,"event":"mousemove"},{"x":1163,"y":319,"t":835,"event":"mousemove"}],"mouse_tracking_targets":{},"correct":true},{"rt":1577,"stimulus":"<p>How confident are you about your choice ?</p>","slider_start":50,"response":97,"trial_type":"html-slider-response","trial_index":13,"time_elapsed":14691,"internal_node_id":"0.0-3.0-2.2"},{"rt":null,"stimulus":"\n        <div id='jspsych-image' style='position: relative; width: min(80vw, 80vh); height: min(80vw, 80vh);'>\n                \n                <div style='position: absolute; top: 40%; left: 30%; bottom: 40%; right: 30%;'><h1 style='font-size: 60px; color: green;'>Correct!</h1></div>\n                \n                <div class='jspsych-image' id='jspsych-image-0' data-choice='0' style='top: 0;     left: 0;'><img style=\"width: 100%; height: 100%;\" src='../static/human_exp_images/practice_img/02_2.png' class=''></img></div>\n                <div class='jspsych-image' id='jspsych-image-1' data-choice='1' style='top: 0;     right: 0;'><img style=\"width: 100%; height: 100%;\" src='../static/human_exp_images/practice_img/02_3.png' class='correct-choice'></img></div>\n                <div class='jspsych-image' id='jspsych-image-2' data-choice='2' style='bottom: 0;  left: 0;'><img style=\"width: 100%; height: 100%;\" src='../static/human_exp_images/practice_img/02_0.png' class=''></img></div>\n                <div class='jspsych-image' id='jspsych-image-3' data-choice='3' style='bottom: 0;  right: 0;'><img style=\"width: 100%; height: 100%;\" src='../static/human_exp_images/practice_img/02_1.png' class=''></img></div>\n\n        </div>","response":null,"trial_type":"html-keyboard-response","trial_index":14,"time_elapsed":16194,"internal_node_id":"0.0-3.0-3.2"}]