[{"rt":1048,"stimulus":"<p style='font-size: 40px'>Welcome to the experiment.</p><p style='font-size: 30px'>Press any key to begin.</p>","response":" ","trial_type":"html-keyboard-response","trial_index":0,"time_elapsed":1049,"internal_node_id":"0.0-0.0"},{"rt":836,"stimulus":"\n    <p>In this experiment, 4 images will appear on the screen. 3 out of 4 images were generated with a certain rule while one image (the odd one out) does not respect this rule.</p>\n    <p>Select the odd one out by clicking on the image.</p>\n    <p>Following your choice, you will be asked to rate how confident you were about your choice on a scale from 1 to 100. Then, you will receive feedback on the trial.</p>\n    <p>For each rule you will perform 21 trials. You will be notified at each rule change.</p>\n    <p>The following 3 trials will allow you to get familiar with the odd-one-out task. The experiment starts after this practice session.</p>\n    \n    <p>Press any button to continue</p>\n    <div style='margin: auto; position: relative; width: 400px; height: 400px;'>\n        <div style='position: absolute; top: 0;     left: 0; '><img src='../static/img/square.png'></img></div>\n        <div style='position: absolute; top: 0;     right: 0;'><img src='../static/img/square.png'></img></div>\n        <div style='position: absolute; bottom: 0;  left: 0; '><img src='../static/img/square.png'></img></div>\n        <div style='position: absolute; bottom: 0;  right: 0;'><img src='../static/img/square.png'></img></div>\n    </div>\n","response":" ","trial_type":"html-keyboard-response","trial_index":1,"time_elapsed":1887,"internal_node_id":"0.0-1.0"},{"success":true,"timeout":false,"failed_images":[],"failed_audio":[],"failed_video":[],"trial_type":"preload","trial_index":2,"time_elapsed":3945,"internal_node_id":"0.0-2.0"},{"rt":null,"trial_type":"image-click","trial_index":3,"time_elapsed":4900,"internal_node_id":"0.0-3.0-0.0"},{"rt":1287,"response":1,"all_choices":["../static/human_exp_images/practice_img/00_1.png","../static/human_exp_images/practice_img/00_3.png","../static/human_exp_images/practice_img/00_2.png","../static/human_exp_images/practice_img/00_0.png"],"task":"response","correct_response":1,"shuffled_array":[1,3,2,0],"catch_trial":false,"trial_type":"image-click","trial_index":4,"time_elapsed":6190,"internal_node_id":"0.0-3.0-1.0","mouse_tracking_data":[{"x":1051,"y":408,"t":1,"event":"mousemove"},{"x":1036,"y":421,"t":13,"event":"mousemove"},{"x":1025,"y":433,"t":29,"event":"mousemove"},{"x":1014,"y":440,"t":47,"event":"mousemove"},{"x":1001,"y":450,"t":63,"event":"mousemove"},{"x":994,"y":457,"t":80,"event":"mousemove"},{"x":989,"y":462,"t":98,"event":"mousemove"},{"x":982,"y":467,"t":114,"event":"mousemove"},{"x":978,"y":469,"t":131,"event":"mousemove"},{"x":977,"y":469,"t":156,"event":"mousemove"},{"x":980,"y":466,"t":710,"event":"mousemove"},{"x":987,"y":462,"t":710,"event":"mousemove"},{"x":1004,"y":445,"t":727,"event":"mousemove"},{"x":1034,"y":418,"t":743,"event":"mousemove"},{"x":1071,"y":381,"t":760,"event":"mousemove"},{"x":1110,"y":339,"t":777,"event":"mousemove"},{"x":1155,"y":297,"t":795,"event":"mousemove"},{"x":1183,"y":268,"t":810,"event":"mousemove"},{"x":1215,"y":244,"t":827,"event":"mousemove"},{"x":1236,"y":225,"t":843,"event":"mousemove"},{"x":1257,"y":209,"t":861,"event":"mousemove"},{"x":1266,"y":203,"t":876,"event":"mousemove"},{"x":1272,"y":198,"t":893,"event":"mousemove"},{"x":1273,"y":198,"t":910,"event":"mousemove"}],"mouse_tracking_targets":{},"correct":true},{"rt":1358,"stimulus":"<p>How confident are you about your choice ?</p>","slider_start":50,"response":81,"trial_type":"html-slider-response","trial_index":5,"time_elapsed":7550,"internal_node_id":"0.0-3.0-2.0"},{"rt":null,"stimulus":"\n        <div id='jspsych-image' style='position: relative; width: min(80vw, 80vh); height: min(80vw, 80vh);'>\n                \n                <div style='position: absolute; top: 40%; left: 30%; bottom: 40%; right: 30%;'><h1 style='font-size: 60px; color: green;'>Correct!</h1></div>\n                \n                <div class='jspsych-image' id='jspsych-image-0' data-choice='0' style='top: 0;     left: 0;'><img style=\"width: 100%; height: 100%;\" src='../static/human_exp_images/practice_img/00_1.png' class=''></img></div>\n                <div class='jspsych-image' id='jspsych-image-1' data-choice='1' style='top: 0;     right: 0;'><img style=\"width: 100%; height: 100%;\" src='../static/human_exp_images/practice_img/00_3.png' class='correct-choice'></img></div>\n                <div class='jspsych-image' id='jspsych-image-2' data-choice='2' style='bottom: 0;  left: 0;'><img style=\"width: 100%; height: 100%;\" src='../static/human_exp_images/practice_img/00_2.png' class=''></img></div>\n                <div class='jspsych-image' id='jspsych-image-3' data-choice='3' style='bottom: 0;  right: 0;'><img style=\"width: 100%; height: 100%;\" src='../static/human_exp_images/practice_img/00_0.png' class=''></img></div>\n\n        </div>","response":null,"trial_type":"html-keyboard-response","trial_index":6,"time_elapsed":9055,"internal_node_id":"0.0-3.0-3.0"},{"rt":null,"trial_type":"image-click","trial_index":7,"time_elapsed":9490,"internal_node_id":"0.0-3.0-0.1"},{"rt":1017,"response":0,"all_choices":["../static/human_exp_images/practice_img/01_3.png","../static/human_exp_images/practice_img/01_1.png","../static/human_exp_images/practice_img/01_0.png","../static/human_exp_images/practice_img/01_2.png"],"task":"response","correct_response":0,"shuffled_array":[3,1,0,2],"catch_trial":false,"trial_type":"image-click","trial_index":8,"time_elapsed":10511,"internal_node_id":"0.0-3.0-1.1","mouse_tracking_data":[{"x":1049,"y":478,"t":1,"event":"mousemove"},{"x":1044,"y":476,"t":12,"event":"mousemove"},{"x":1041,"y":476,"t":28,"event":"mousemove"},{"x":1035,"y":475,"t":45,"event":"mousemove"},{"x":1032,"y":475,"t":61,"event":"mousemove"},{"x":1027,"y":475,"t":78,"event":"mousemove"},{"x":1022,"y":475,"t":95,"event":"mousemove"},{"x":1018,"y":475,"t":111,"event":"mousemove"},{"x":1013,"y":473,"t":128,"event":"mousemove"},{"x":1010,"y":473,"t":145,"event":"mousemove"},{"x":1006,"y":473,"t":162,"event":"mousemove"},{"x":1005,"y":473,"t":179,"event":"mousemove"},{"x":1003,"y":473,"t":205,"event":"mousemove"},{"x":1001,"y":473,"t":224,"event":"mousemove"},{"x":1001,"y":471,"t":494,"event":"mousemove"},{"x":1000,"y":471,"t":641,"event":"mousemove"},{"x":1000,"y":469,"t":649,"event":"mousemove"},{"x":998,"y":469,"t":651,"event":"mousemove"},{"x":996,"y":468,"t":659,"event":"mousemove"},{"x":995,"y":468,"t":662,"event":"mousemove"},{"x":991,"y":466,"t":668,"event":"mousemove"},{"x":988,"y":464,"t":672,"event":"mousemove"},{"x":983,"y":463,"t":676,"event":"mousemove"},{"x":981,"y":461,"t":677,"event":"mousemove"},{"x":972,"y":456,"t":694,"event":"mousemove"},{"x":955,"y":445,"t":711,"event":"mousemove"},{"x":940,"y":433,"t":727,"event":"mousemove"},{"x":925,"y":422,"t":744,"event":"mousemove"},{"x":908,"y":410,"t":761,"event":"mousemove"},{"x":890,"y":396,"t":778,"event":"mousemove"},{"x":876,"y":389,"t":795,"event":"mousemove"},{"x":862,"y":380,"t":811,"event":"mousemove"},{"x":845,"y":371,"t":828,"event":"mousemove"},{"x":833,"y":365,"t":844,"event":"mousemove"},{"x":823,"y":359,"t":861,"event":"mousemove"},{"x":820,"y":358,"t":878,"event":"mousemove"},{"x":811,"y":353,"t":894,"event":"mousemove"},{"x":806,"y":349,"t":911,"event":"mousemove"},{"x":801,"y":344,"t":928,"event":"mousemove"},{"x":799,"y":342,"t":944,"event":"mousemove"},{"x":794,"y":339,"t":961,"event":"mousemove"},{"x":792,"y":337,"t":977,"event":"mousemove"},{"x":791,"y":334,"t":994,"event":"mousemove"},{"x":789,"y":334,"t":998,"event":"mousemove"},{"x":789,"y":332,"t":1012,"event":"mousemove"}],"mouse_tracking_targets":{},"correct":true},{"rt":1295,"stimulus":"<p>How confident are you about your choice ?</p>","slider_start":50,"response":90,"trial_type":"html-slider-response","trial_index":9,"time_elapsed":11809,"internal_node_id":"0.0-3.0-2.1"},{"rt":null,"stimulus":"\n        <div id='jspsych-image' style='position: relative; width: min(80vw, 80vh); height: min(80vw, 80vh);'>\n                \n                <div style='position: absolute; top: 40%; left: 30%; bottom: 40%; right: 30%;'><h1 style='font-size: 60px; color: green;'>Correct!</h1></div>\n                \n                <div class='jspsych-image' id='jspsych-image-0' data-choice='0' style='top: 0;     left: 0;'><img style=\"width: 100%; height: 100%;\" src='../static/human_exp_images/practice_img/01_3.png' class='correct-choice'></img></div>\n                <div class='jspsych-image' id='jspsych-image-1' data-choice='1' style='top: 0;     right: 0;'><img style=\"width: 100%; height: 100%;\" src='../static/human_exp_images/practice_img/01_1.png' class=''></img></div>\n                <div class='jspsych-image' id='jspsych-image-2' data-choice='2' style='bottom: 0;  left: 0;'><img style=\"width: 100%; height: 100%;\" src='../static/human_exp_images/practice_img/01_0.png' class=''></img></div>\n                <div class='jspsych-image' id='jspsych-image-3' data-choice='3' style='bottom: 0;  right: 0;'><img style=\"width: 100%; height: 100%;\" src='../static/human_exp_images/practice_img/01_2.png' class=''></img></div>\n\n        </div>","response":null,"trial_type":"html-keyboard-response","trial_index":10,"time_elapsed":13315,"internal_node_id":"0.0-3.0-3.1"},{"rt":null,"trial_type":"image-click","trial_index":11,"time_elapsed":13318,"internal_node_id":"0.0-3.0-0.2"},{"rt":1064,"response":0,"all_choices":["../static/human_exp_images/practice_img/02_3.png","../static/human_exp_images/practice_img/02_2.png","../static/human_exp_images/practice_img/02_0.png","../static/human_exp_images/practice_img/02_1.png"],"task":"response","correct_response":0,"shuffled_array":[3,2,0,1],"catch_trial":false,"trial_type":"image-click","trial_index":12,"time_elapsed":14384,"internal_node_id":"0.0-3.0-1.2","mouse_tracking_data":[{"x":959,"y":471,"t":460,"event":"mousemove"},{"x":960,"y":471,"t":464,"event":"mousemove"},{"x":962,"y":471,"t":489,"event":"mousemove"},{"x":964,"y":471,"t":560,"event":"mousemove"},{"x":962,"y":471,"t":653,"event":"mousemove"},{"x":956,"y":471,"t":655,"event":"mousemove"},{"x":943,"y":469,"t":671,"event":"mousemove"},{"x":931,"y":461,"t":688,"event":"mousemove"},{"x":921,"y":456,"t":705,"event":"mousemove"},{"x":906,"y":445,"t":721,"event":"mousemove"},{"x":886,"y":431,"t":738,"event":"mousemove"},{"x":862,"y":411,"t":755,"event":"mousemove"},{"x":844,"y":397,"t":772,"event":"mousemove"},{"x":821,"y":377,"t":788,"event":"mousemove"},{"x":808,"y":365,"t":805,"event":"mousemove"},{"x":795,"y":349,"t":821,"event":"mousemove"},{"x":788,"y":338,"t":839,"event":"mousemove"},{"x":785,"y":333,"t":855,"event":"mousemove"},{"x":778,"y":321,"t":872,"event":"mousemove"},{"x":774,"y":316,"t":888,"event":"mousemove"},{"x":769,"y":307,"t":905,"event":"mousemove"},{"x":764,"y":299,"t":922,"event":"mousemove"},{"x":761,"y":290,"t":939,"event":"mousemove"},{"x":757,"y":285,"t":955,"event":"mousemove"},{"x":752,"y":280,"t":972,"event":"mousemove"},{"x":751,"y":278,"t":988,"event":"mousemove"},{"x":751,"y":277,"t":1005,"event":"mousemove"}],"mouse_tracking_targets":{},"correct":true},{"rt":858,"stimulus":"<p>How confident are you about your choice ?</p>","slider_start":50,"response":84,"trial_type":"html-slider-response","trial_index":13,"time_elapsed":15246,"internal_node_id":"0.0-3.0-2.2"},{"rt":null,"stimulus":"\n        <div id='jspsych-image' style='position: relative; width: min(80vw, 80vh); height: min(80vw, 80vh);'>\n                \n                <div style='position: absolute; top: 40%; left: 30%; bottom: 40%; right: 30%;'><h1 style='font-size: 60px; color: green;'>Correct!</h1></div>\n                \n                <div class='jspsych-image' id='jspsych-image-0' data-choice='0' style='top: 0;     left: 0;'><img style=\"width: 100%; height: 100%;\" src='../static/human_exp_images/practice_img/02_3.png' class='correct-choice'></img></div>\n                <div class='jspsych-image' id='jspsych-image-1' data-choice='1' style='top: 0;     right: 0;'><img style=\"width: 100%; height: 100%;\" src='../static/human_exp_images/practice_img/02_2.png' class=''></img></div>\n                <div class='jspsych-image' id='jspsych-image-2' data-choice='2' style='bottom: 0;  left: 0;'><img style=\"width: 100%; height: 100%;\" src='../static/human_exp_images/practice_img/02_0.png' class=''></img></div>\n                <div class='jspsych-image' id='jspsych-image-3' data-choice='3' style='bottom: 0;  right: 0;'><img style=\"width: 100%; height: 100%;\" src='../static/human_exp_images/practice_img/02_1.png' class=''></img></div>\n\n        </div>","response":null,"trial_type":"html-keyboard-response","trial_index":14,"time_elapsed":16749,"internal_node_id":"0.0-3.0-3.2"},{"rt":1624,"stimulus":"<p style='font-size: 40px'>The practice session is over. The experiment begin now!</p> \n                <p>Please take pauses on only at the \"new rule\" pages.</p> \n                <p>Press any key to begin.</p>","response":" ","trial_type":"html-keyboard-response","trial_index":15,"time_elapsed":18374,"internal_node_id":"0.0-4.0"},{"success":true,"timeout":false,"failed_images":[],"failed_audio":[],"failed_video":[],"trial_type":"preload","trial_index":16,"time_elapsed":18581,"internal_node_id":"0.0-5.0"},{"rt":1656,"stimulus":"<h1 style='font-size: 60px'>New Rule!</h1> <p>Press any key to begin.</p>","response":" ","trial_type":"html-keyboard-response","trial_index":17,"time_elapsed":20238,"internal_node_id":"0.0-6.0"},{"rt":null,"trial_type":"image-click","trial_index":18,"time_elapsed":20838,"internal_node_id":"0.0-7.0-0.0"}]