[{"success":true,"timeout":false,"failed_images":[],"failed_audio":[],"failed_video":[],"trial_type":"preload","trial_index":0,"time_elapsed":1166,"internal_node_id":"0.0-0.0"},{"rt":1139,"stimulus":"<p style='font-size: 40px'>Welcome to the experiment.</p><p style='font-size: 30px'>Press any key to begin.</p>","response":" ","trial_type":"html-keyboard-response","trial_index":1,"time_elapsed":2304,"internal_node_id":"0.0-1.0"},{"rt":1266,"stimulus":"\n    <p>In this experiment, 4 images will appear on the screen. 3 out of 4 images were generated with a certain rule while one image (the odd one out) does not respect this rule.</p>\n    <p>Select the odd one out by clicking on the image.</p>\n    <p>Following your choice, you will be asked to rate how confident you were about your choice on a scale from 1 to 100. Then, you will receive feedback on the trial.</p>\n    <p>For each rule you will perform 21 trials. You will be notified at each rule change.</p>\n    <p>The following 3 trials will allow you to get familiar with the odd-one-out task. The experiment starts after this practice session.</p>\n    \n    <p>Press any button to continue</p>\n    <div style='margin: auto; position: relative; width: 400px; height: 400px;'>\n        <div style='position: absolute; top: 0;     left: 0; '><img src='../static/img/square.png'></img></div>\n        <div style='position: absolute; top: 0;     right: 0;'><img src='../static/img/square.png'></img></div>\n        <div style='position: absolute; bottom: 0;  left: 0; '><img src='../static/img/square.png'></img></div>\n        <div style='position: absolute; bottom: 0;  right: 0;'><img src='../static/img/square.png'></img></div>\n    </div>\n","response":" ","trial_type":"html-keyboard-response","trial_index":2,"time_elapsed":3573,"internal_node_id":"0.0-2.0"},{"rt":null,"trial_type":"image-click","trial_index":3,"time_elapsed":5575,"internal_node_id":"0.0-3.0-0.0"},{"rt":1401,"response":0,"all_choices":["../static/human_exp_images/practice_img/00_3.png","../static/human_exp_images/practice_img/00_1.png","../static/human_exp_images/practice_img/00_2.png","../static/human_exp_images/practice_img/00_0.png"],"task":"response","correct_response":0,"shuffled_array":[3,1,2,0],"catch_trial":false,"trial_type":"image-click","trial_index":4,"time_elapsed":6977,"internal_node_id":"0.0-3.0-1.0","mouse_tracking_data":[{"x":953,"y":436,"t":893,"event":"mousemove"},{"x":953,"y":434,"t":896,"event":"mousemove"},{"x":953,"y":432,"t":920,"event":"mousemove"},{"x":953,"y":431,"t":924,"event":"mousemove"},{"x":953,"y":427,"t":928,"event":"mousemove"},{"x":953,"y":426,"t":930,"event":"mousemove"},{"x":947,"y":414,"t":946,"event":"mousemove"},{"x":936,"y":403,"t":963,"event":"mousemove"},{"x":919,"y":389,"t":980,"event":"mousemove"},{"x":904,"y":376,"t":997,"event":"mousemove"},{"x":890,"y":367,"t":1013,"event":"mousemove"},{"x":877,"y":355,"t":1030,"event":"mousemove"},{"x":870,"y":343,"t":1047,"event":"mousemove"},{"x":862,"y":329,"t":1063,"event":"mousemove"},{"x":855,"y":323,"t":1080,"event":"mousemove"},{"x":841,"y":312,"t":1097,"event":"mousemove"},{"x":826,"y":309,"t":1113,"event":"mousemove"},{"x":813,"y":307,"t":1129,"event":"mousemove"},{"x":800,"y":306,"t":1146,"event":"mousemove"},{"x":793,"y":304,"t":1163,"event":"mousemove"},{"x":788,"y":302,"t":1179,"event":"mousemove"},{"x":781,"y":299,"t":1196,"event":"mousemove"},{"x":777,"y":297,"t":1213,"event":"mousemove"},{"x":777,"y":295,"t":1230,"event":"mousemove"},{"x":776,"y":294,"t":1246,"event":"mousemove"},{"x":774,"y":294,"t":1264,"event":"mousemove"},{"x":772,"y":294,"t":1281,"event":"mousemove"},{"x":771,"y":294,"t":1338,"event":"mousemove"}],"mouse_tracking_targets":{},"correct":true},{"rt":7785,"stimulus":"<p>How confident are you about your choice ?</p>","slider_start":50,"response":94,"trial_type":"html-slider-response","trial_index":5,"time_elapsed":14765,"internal_node_id":"0.0-3.0-2.0"},{"rt":null,"stimulus":"\n        <div id='jspsych-image' style='position: relative; width: min(80vw, 80vh); height: min(80vw, 80vh);'>\n                \n                <div style='position: absolute; top: 40%; left: 30%; bottom: 40%; right: 30%;'><h1 style='font-size: 60px; color: green;'>Correct!</h1></div>\n                \n                <div class='jspsych-image' id='jspsych-image-0' data-choice='0' style='top: 0;     left: 0;'><img style=\"width: 100%; height: 100%;\" src='../static/human_exp_images/practice_img/00_3.png' class='correct-choice'></img></div>\n                <div class='jspsych-image' id='jspsych-image-1' data-choice='1' style='top: 0;     right: 0;'><img style=\"width: 100%; height: 100%;\" src='../static/human_exp_images/practice_img/00_1.png' class=''></img></div>\n                <div class='jspsych-image' id='jspsych-image-2' data-choice='2' style='bottom: 0;  left: 0;'><img style=\"width: 100%; height: 100%;\" src='../static/human_exp_images/practice_img/00_2.png' class=''></img></div>\n                <div class='jspsych-image' id='jspsych-image-3' data-choice='3' style='bottom: 0;  right: 0;'><img style=\"width: 100%; height: 100%;\" src='../static/human_exp_images/practice_img/00_0.png' class=''></img></div>\n\n        </div>","response":null,"trial_type":"html-keyboard-response","trial_index":6,"time_elapsed":16269,"internal_node_id":"0.0-3.0-3.0"},{"rt":null,"trial_type":"image-click","trial_index":7,"time_elapsed":17892,"internal_node_id":"0.0-3.0-0.1"},{"rt":1573,"response":3,"all_choices":["../static/human_exp_images/practice_img/01_0.png","../static/human_exp_images/practice_img/01_2.png","../static/human_exp_images/practice_img/01_1.png","../static/human_exp_images/practice_img/01_3.png"],"task":"response","correct_response":3,"shuffled_array":[0,2,1,3],"catch_trial":false,"trial_type":"image-click","trial_index":8,"time_elapsed":19469,"internal_node_id":"0.0-3.0-1.1","mouse_tracking_data":[{"x":1051,"y":439,"t":0,"event":"mousemove"},{"x":1040,"y":439,"t":11,"event":"mousemove"},{"x":1028,"y":439,"t":28,"event":"mousemove"},{"x":1023,"y":444,"t":45,"event":"mousemove"},{"x":1022,"y":446,"t":61,"event":"mousemove"},{"x":1020,"y":446,"t":79,"event":"mousemove"},{"x":1018,"y":446,"t":95,"event":"mousemove"},{"x":1013,"y":449,"t":112,"event":"mousemove"},{"x":1004,"y":456,"t":128,"event":"mousemove"},{"x":987,"y":469,"t":145,"event":"mousemove"},{"x":975,"y":475,"t":162,"event":"mousemove"},{"x":970,"y":479,"t":179,"event":"mousemove"},{"x":968,"y":479,"t":194,"event":"mousemove"},{"x":966,"y":479,"t":212,"event":"mousemove"},{"x":964,"y":479,"t":229,"event":"mousemove"},{"x":964,"y":476,"t":923,"event":"mousemove"},{"x":964,"y":472,"t":927,"event":"mousemove"},{"x":964,"y":469,"t":931,"event":"mousemove"},{"x":964,"y":467,"t":940,"event":"mousemove"},{"x":964,"y":466,"t":943,"event":"mousemove"},{"x":971,"y":466,"t":959,"event":"mousemove"},{"x":983,"y":466,"t":976,"event":"mousemove"},{"x":1000,"y":466,"t":992,"event":"mousemove"},{"x":1019,"y":471,"t":1009,"event":"mousemove"},{"x":1037,"y":483,"t":1025,"event":"mousemove"},{"x":1052,"y":492,"t":1042,"event":"mousemove"},{"x":1067,"y":508,"t":1059,"event":"mousemove"},{"x":1077,"y":517,"t":1075,"event":"mousemove"},{"x":1093,"y":532,"t":1092,"event":"mousemove"},{"x":1104,"y":546,"t":1108,"event":"mousemove"},{"x":1115,"y":560,"t":1126,"event":"mousemove"},{"x":1122,"y":569,"t":1143,"event":"mousemove"},{"x":1129,"y":579,"t":1159,"event":"mousemove"},{"x":1132,"y":588,"t":1176,"event":"mousemove"},{"x":1136,"y":593,"t":1192,"event":"mousemove"},{"x":1141,"y":598,"t":1209,"event":"mousemove"},{"x":1144,"y":603,"t":1226,"event":"mousemove"},{"x":1149,"y":610,"t":1242,"event":"mousemove"},{"x":1151,"y":613,"t":1259,"event":"mousemove"},{"x":1153,"y":617,"t":1275,"event":"mousemove"},{"x":1154,"y":617,"t":1293,"event":"mousemove"},{"x":1154,"y":618,"t":1330,"event":"mousemove"},{"x":1156,"y":618,"t":1342,"event":"mousemove"},{"x":1156,"y":620,"t":1359,"event":"mousemove"},{"x":1158,"y":622,"t":1376,"event":"mousemove"}],"mouse_tracking_targets":{},"correct":true},{"rt":22780,"stimulus":"<p>How confident are you about your choice ?</p>","slider_start":50,"response":100,"trial_type":"html-slider-response","trial_index":9,"time_elapsed":42252,"internal_node_id":"0.0-3.0-2.1"},{"rt":null,"stimulus":"\n        <div id='jspsych-image' style='position: relative; width: min(80vw, 80vh); height: min(80vw, 80vh);'>\n                \n                <div style='position: absolute; top: 40%; left: 30%; bottom: 40%; right: 30%;'><h1 style='font-size: 60px; color: green;'>Correct!</h1></div>\n                \n                <div class='jspsych-image' id='jspsych-image-0' data-choice='0' style='top: 0;     left: 0;'><img style=\"width: 100%; height: 100%;\" src='../static/human_exp_images/practice_img/01_0.png' class=''></img></div>\n                <div class='jspsych-image' id='jspsych-image-1' data-choice='1' style='top: 0;     right: 0;'><img style=\"width: 100%; height: 100%;\" src='../static/human_exp_images/practice_img/01_2.png' class=''></img></div>\n                <div class='jspsych-image' id='jspsych-image-2' data-choice='2' style='bottom: 0;  left: 0;'><img style=\"width: 100%; height: 100%;\" src='../static/human_exp_images/practice_img/01_1.png' class=''></img></div>\n                <div class='jspsych-image' id='jspsych-image-3' data-choice='3' style='bottom: 0;  right: 0;'><img style=\"width: 100%; height: 100%;\" src='../static/human_exp_images/practice_img/01_3.png' class='correct-choice'></img></div>\n\n        </div>","response":null,"trial_type":"html-keyboard-response","trial_index":10,"time_elapsed":43754,"internal_node_id":"0.0-3.0-3.1"},{"rt":null,"trial_type":"image-click","trial_index":11,"time_elapsed":50017,"internal_node_id":"0.0-3.0-0.2"},{"rt":1146,"response":0,"all_choices":["../static/human_exp_images/practice_img/02_3.png","../static/human_exp_images/practice_img/02_2.png","../static/human_exp_images/practice_img/02_1.png","../static/human_exp_images/practice_img/02_0.png"],"task":"response","correct_response":0,"shuffled_array":[3,2,1,0],"catch_trial":false,"trial_type":"image-click","trial_index":12,"time_elapsed":51166,"internal_node_id":"0.0-3.0-1.2","mouse_tracking_data":[{"x":1045,"y":474,"t":1,"event":"mousemove"},{"x":1034,"y":474,"t":13,"event":"mousemove"},{"x":1029,"y":474,"t":30,"event":"mousemove"},{"x":1026,"y":474,"t":46,"event":"mousemove"},{"x":1024,"y":474,"t":89,"event":"mousemove"},{"x":1022,"y":474,"t":125,"event":"mousemove"},{"x":1019,"y":474,"t":135,"event":"mousemove"},{"x":1014,"y":474,"t":146,"event":"mousemove"},{"x":1007,"y":474,"t":163,"event":"mousemove"},{"x":1004,"y":474,"t":180,"event":"mousemove"},{"x":1002,"y":474,"t":197,"event":"mousemove"},{"x":1000,"y":474,"t":215,"event":"mousemove"},{"x":999,"y":474,"t":230,"event":"mousemove"},{"x":999,"y":473,"t":459,"event":"mousemove"},{"x":999,"y":471,"t":532,"event":"mousemove"},{"x":995,"y":469,"t":614,"event":"mousemove"},{"x":993,"y":468,"t":618,"event":"mousemove"},{"x":988,"y":466,"t":622,"event":"mousemove"},{"x":985,"y":464,"t":623,"event":"mousemove"},{"x":971,"y":456,"t":639,"event":"mousemove"},{"x":932,"y":433,"t":655,"event":"mousemove"},{"x":880,"y":404,"t":672,"event":"mousemove"},{"x":831,"y":384,"t":689,"event":"mousemove"},{"x":797,"y":370,"t":706,"event":"mousemove"},{"x":776,"y":360,"t":722,"event":"mousemove"},{"x":759,"y":351,"t":738,"event":"mousemove"},{"x":752,"y":346,"t":756,"event":"mousemove"},{"x":746,"y":341,"t":773,"event":"mousemove"},{"x":739,"y":332,"t":789,"event":"mousemove"},{"x":732,"y":326,"t":806,"event":"mousemove"},{"x":727,"y":319,"t":822,"event":"mousemove"},{"x":723,"y":317,"t":839,"event":"mousemove"},{"x":720,"y":314,"t":856,"event":"mousemove"},{"x":718,"y":312,"t":873,"event":"mousemove"},{"x":718,"y":310,"t":889,"event":"mousemove"},{"x":718,"y":309,"t":923,"event":"mousemove"},{"x":718,"y":307,"t":1006,"event":"mousemove"}],"mouse_tracking_targets":{},"correct":true},{"rt":3754,"stimulus":"<p>How confident are you about your choice ?</p>","slider_start":50,"response":98,"trial_type":"html-slider-response","trial_index":13,"time_elapsed":54923,"internal_node_id":"0.0-3.0-2.2"},{"rt":null,"stimulus":"\n        <div id='jspsych-image' style='position: relative; width: min(80vw, 80vh); height: min(80vw, 80vh);'>\n                \n                <div style='position: absolute; top: 40%; left: 30%; bottom: 40%; right: 30%;'><h1 style='font-size: 60px; color: green;'>Correct!</h1></div>\n                \n                <div class='jspsych-image' id='jspsych-image-0' data-choice='0' style='top: 0;     left: 0;'><img style=\"width: 100%; height: 100%;\" src='../static/human_exp_images/practice_img/02_3.png' class='correct-choice'></img></div>\n                <div class='jspsych-image' id='jspsych-image-1' data-choice='1' style='top: 0;     right: 0;'><img style=\"width: 100%; height: 100%;\" src='../static/human_exp_images/practice_img/02_2.png' class=''></img></div>\n                <div class='jspsych-image' id='jspsych-image-2' data-choice='2' style='bottom: 0;  left: 0;'><img style=\"width: 100%; height: 100%;\" src='../static/human_exp_images/practice_img/02_1.png' class=''></img></div>\n                <div class='jspsych-image' id='jspsych-image-3' data-choice='3' style='bottom: 0;  right: 0;'><img style=\"width: 100%; height: 100%;\" src='../static/human_exp_images/practice_img/02_0.png' class=''></img></div>\n\n        </div>","response":null,"trial_type":"html-keyboard-response","trial_index":14,"time_elapsed":56426,"internal_node_id":"0.0-3.0-3.2"},{"rt":1752,"stimulus":"<p style='font-size: 40px'>The practice session is over. The experiment begin now!</p> \n                <p>Please take pauses on only at the \"new rule\" pages.</p> \n                <p>Press any key to begin.</p>","response":" ","trial_type":"html-keyboard-response","trial_index":15,"time_elapsed":58180,"internal_node_id":"0.0-4.0"},{"rt":778,"stimulus":"<h1 style='font-size: 60px'>New Rule!</h1> <p>Press any key to begin.</p>","response":" ","trial_type":"html-keyboard-response","trial_index":16,"time_elapsed":58958,"internal_node_id":"0.0-5.0"},{"rt":null,"trial_type":"image-click","trial_index":17,"time_elapsed":58961,"internal_node_id":"0.0-6.0-0.0"},{"rt":1153,"response":3,"all_choices":["../static/human_exp_images/task_size/00_2.png","../static/human_exp_images/task_size/00_0.png","../static/human_exp_images/task_size/00_1.png","../static/human_exp_images/task_size/00_3.png"],"task":"response","correct_response":3,"shuffled_array":[2,0,1,3],"catch_trial":false,"trial_type":"image-click","trial_index":18,"time_elapsed":60116,"internal_node_id":"0.0-6.0-1.0","mouse_tracking_data":[{"x":1039,"y":458,"t":498,"event":"mousemove"},{"x":1036,"y":458,"t":506,"event":"mousemove"},{"x":1034,"y":460,"t":514,"event":"mousemove"},{"x":1032,"y":460,"t":517,"event":"mousemove"},{"x":1031,"y":460,"t":523,"event":"mousemove"},{"x":1029,"y":460,"t":529,"event":"mousemove"},{"x":1027,"y":460,"t":532,"event":"mousemove"},{"x":1026,"y":462,"t":550,"event":"mousemove"},{"x":1024,"y":462,"t":560,"event":"mousemove"},{"x":1022,"y":462,"t":577,"event":"mousemove"},{"x":1022,"y":463,"t":621,"event":"mousemove"},{"x":1021,"y":463,"t":623,"event":"mousemove"},{"x":1019,"y":463,"t":629,"event":"mousemove"},{"x":1017,"y":463,"t":639,"event":"mousemove"},{"x":1015,"y":463,"t":640,"event":"mousemove"},{"x":1014,"y":463,"t":656,"event":"mousemove"},{"x":1014,"y":465,"t":665,"event":"mousemove"},{"x":1012,"y":465,"t":675,"event":"mousemove"},{"x":1009,"y":467,"t":685,"event":"mousemove"},{"x":1007,"y":467,"t":694,"event":"mousemove"},{"x":1005,"y":467,"t":695,"event":"mousemove"},{"x":1003,"y":467,"t":711,"event":"mousemove"},{"x":1003,"y":469,"t":729,"event":"mousemove"},{"x":1003,"y":470,"t":748,"event":"mousemove"},{"x":1003,"y":474,"t":757,"event":"mousemove"},{"x":1003,"y":481,"t":765,"event":"mousemove"},{"x":1003,"y":484,"t":765,"event":"mousemove"},{"x":1003,"y":494,"t":781,"event":"mousemove"},{"x":1007,"y":518,"t":798,"event":"mousemove"},{"x":1043,"y":551,"t":815,"event":"mousemove"},{"x":1081,"y":577,"t":832,"event":"mousemove"},{"x":1110,"y":604,"t":849,"event":"mousemove"},{"x":1123,"y":614,"t":865,"event":"mousemove"},{"x":1149,"y":640,"t":882,"event":"mousemove"},{"x":1166,"y":654,"t":899,"event":"mousemove"},{"x":1183,"y":662,"t":915,"event":"mousemove"},{"x":1190,"y":665,"t":932,"event":"mousemove"},{"x":1194,"y":665,"t":949,"event":"mousemove"},{"x":1195,"y":665,"t":965,"event":"mousemove"}],"mouse_tracking_targets":{},"correct":true},{"rt":2366,"stimulus":"<p>How confident are you about your choice ?</p>","slider_start":50,"response":94,"trial_type":"html-slider-response","trial_index":19,"time_elapsed":62484,"internal_node_id":"0.0-6.0-2.0"},{"rt":null,"stimulus":"\n        <div id='jspsych-image' style='position: relative; width: min(80vw, 80vh); height: min(80vw, 80vh);'>\n                \n                <div style='position: absolute; top: 40%; left: 30%; bottom: 40%; right: 30%;'><h1 style='font-size: 60px; color: green;'>Correct!</h1></div>\n                \n                <div class='jspsych-image' id='jspsych-image-0' data-choice='0' style='top: 0;     left: 0;'><img style=\"width: 100%; height: 100%;\" src='../static/human_exp_images/task_size/00_2.png' class=''></img></div>\n                <div class='jspsych-image' id='jspsych-image-1' data-choice='1' style='top: 0;     right: 0;'><img style=\"width: 100%; height: 100%;\" src='../static/human_exp_images/task_size/00_0.png' class=''></img></div>\n                <div class='jspsych-image' id='jspsych-image-2' data-choice='2' style='bottom: 0;  left: 0;'><img style=\"width: 100%; height: 100%;\" src='../static/human_exp_images/task_size/00_1.png' class=''></img></div>\n                <div class='jspsych-image' id='jspsych-image-3' data-choice='3' style='bottom: 0;  right: 0;'><img style=\"width: 100%; height: 100%;\" src='../static/human_exp_images/task_size/00_3.png' class='correct-choice'></img></div>\n\n        </div>","response":null,"trial_type":"html-keyboard-response","trial_index":20,"time_elapsed":63987,"internal_node_id":"0.0-6.0-3.0"}]