[{"rt":773,"stimulus":"<p style='font-size: 40px'>Welcome to the experiment.</p><p style='font-size: 30px'>Press any key to begin.</p>","response":" ","trial_type":"html-keyboard-response","trial_index":0,"time_elapsed":773,"internal_node_id":"0.0-0.0"},{"rt":633,"stimulus":"\n    <p>This experiment aims to measure humans' visual reasoning skills. You will go through a practice session consisting of 3 trials, followed by 6 blocks of 21 trials.</p>\n    <p>When presented with an empty square in the middle of the screen, place your cursor on it to start the trial.</p>\n    <p>4 images will appear on the screen. 3 out of 4 images were generated with a certain rule while one image (the odd one out) does not respect this rule.</p>\n    <p>Select the odd one out by clicking on the image.</p>\n    <p>Following your choice, you will be asked to rate how confident you were about your choice on a scale from 0 to 100. Then, you will receive feedback on the trial.</p>\n    <p>The 21 trials of a block use the same rule and each block uses a different rule. At the end of each block, you will asked to describe the rule before starting a new block.</p>\n    <p>Please do not take breaks only in between blocks not in between trials.</p>\n    <p>The following 3 trials will allow you to get familiar with the odd-one-out task. The experiment starts after this practice session.</p>\n    \n    <p>Press any button to continue</p>\n    <div style='margin: auto; position: relative; width: 400px; height: 400px;'>\n        <div style='position: absolute; top: 0;     left: 0; '><img src='../static/img/square.png'></img></div>\n        <div style='position: absolute; top: 0;     right: 0;'><img src='../static/img/square.png'></img></div>\n        <div style='position: absolute; bottom: 0;  left: 0; '><img src='../static/img/square.png'></img></div>\n        <div style='position: absolute; bottom: 0;  right: 0;'><img src='../static/img/square.png'></img></div>\n    </div>\n","response":" ","trial_type":"html-keyboard-response","trial_index":1,"time_elapsed":1408,"internal_node_id":"0.0-1.0"},{"rt":2896,"response":{"Instruction Check":["There are 6 blocks of 21 trials.","It's ok to take breaks within a block."]},"question_order":[0],"trial_type":"survey-multi-select","trial_index":2,"time_elapsed":6310,"internal_node_id":"0.0-2.0"},{"success":true,"timeout":false,"failed_images":[],"failed_audio":[],"failed_video":[],"trial_type":"preload","trial_index":3,"time_elapsed":6342,"internal_node_id":"0.0-3.0"},{"rt":null,"trial_type":"image-click","trial_index":4,"time_elapsed":7225,"internal_node_id":"0.0-4.0-0.0"},{"rt":2059,"response":3,"all_choices":["../static/human_exp_images/practice_img/00_0.png","../static/human_exp_images/practice_img/00_2.png","../static/human_exp_images/practice_img/00_1.png","../static/human_exp_images/practice_img/00_3.png"],"task":"response","correct_response":3,"shuffled_array":[0,2,1,3],"catch_trial":false,"trial_type":"image-click","trial_index":5,"time_elapsed":9288,"internal_node_id":"0.0-4.0-1.0","mouse_tracking_data":[{"x":968,"y":537,"t":1,"event":"mousemove"},{"x":968,"y":521,"t":12,"event":"mousemove"},{"x":968,"y":510,"t":28,"event":"mousemove"},{"x":968,"y":501,"t":45,"event":"mousemove"},{"x":968,"y":498,"t":62,"event":"mousemove"},{"x":968,"y":494,"t":79,"event":"mousemove"},{"x":968,"y":492,"t":124,"event":"mousemove"},{"x":973,"y":492,"t":730,"event":"mousemove"},{"x":974,"y":492,"t":732,"event":"mousemove"},{"x":990,"y":494,"t":749,"event":"mousemove"},{"x":1001,"y":504,"t":766,"event":"mousemove"},{"x":1034,"y":536,"t":782,"event":"mousemove"},{"x":1072,"y":574,"t":799,"event":"mousemove"},{"x":1101,"y":604,"t":815,"event":"mousemove"},{"x":1114,"y":617,"t":832,"event":"mousemove"},{"x":1120,"y":625,"t":849,"event":"mousemove"},{"x":1125,"y":628,"t":865,"event":"mousemove"},{"x":1125,"y":630,"t":882,"event":"mousemove"},{"x":1130,"y":633,"t":898,"event":"mousemove"},{"x":1135,"y":637,"t":916,"event":"mousemove"},{"x":1144,"y":642,"t":932,"event":"mousemove"},{"x":1151,"y":647,"t":949,"event":"mousemove"},{"x":1154,"y":649,"t":966,"event":"mousemove"},{"x":1156,"y":649,"t":983,"event":"mousemove"},{"x":1157,"y":649,"t":1885,"event":"mousemove"},{"x":1159,"y":649,"t":1887,"event":"mousemove"},{"x":1161,"y":649,"t":1903,"event":"mousemove"},{"x":1169,"y":654,"t":1919,"event":"mousemove"},{"x":1171,"y":654,"t":1936,"event":"mousemove"},{"x":1179,"y":662,"t":1952,"event":"mousemove"},{"x":1181,"y":666,"t":1968,"event":"mousemove"},{"x":1185,"y":673,"t":1985,"event":"mousemove"},{"x":1185,"y":674,"t":2002,"event":"mousemove"}],"mouse_tracking_targets":{},"correct":true},{"rt":1147,"stimulus":"<p>How confident are you about your choice ? (click on the bar)</p>","slider_start":50,"response":98,"trial_type":"html-slider-response","trial_index":6,"time_elapsed":10436,"internal_node_id":"0.0-4.0-2.0"},{"rt":null,"stimulus":"\n        <div id='jspsych-image' style='position: relative; width: min(80vw, 80vh); height: min(80vw, 80vh);'>\n                \n                <div style='position: absolute; top: 40%; left: 30%; bottom: 40%; right: 30%;'><h1 style='font-size: 60px; color: green;'>Correct!</h1></div>\n                \n                <div class='jspsych-image' id='jspsych-image-0' data-choice='0' style='top: 0;     left: 0;'><img style=\"width: 100%; height: 100%;\" src='../static/human_exp_images/practice_img/00_0.png' class=''></img></div>\n                <div class='jspsych-image' id='jspsych-image-1' data-choice='1' style='top: 0;     right: 0;'><img style=\"width: 100%; height: 100%;\" src='../static/human_exp_images/practice_img/00_2.png' class=''></img></div>\n                <div class='jspsych-image' id='jspsych-image-2' data-choice='2' style='bottom: 0;  left: 0;'><img style=\"width: 100%; height: 100%;\" src='../static/human_exp_images/practice_img/00_1.png' class=''></img></div>\n                <div class='jspsych-image' id='jspsych-image-3' data-choice='3' style='bottom: 0;  right: 0;'><img style=\"width: 100%; height: 100%;\" src='../static/human_exp_images/practice_img/00_3.png' class='correct-choice'></img></div>\n\n        </div>","response":null,"trial_type":"html-keyboard-response","trial_index":7,"time_elapsed":11939,"internal_node_id":"0.0-4.0-3.0"},{"rt":null,"trial_type":"image-click","trial_index":8,"time_elapsed":12550,"internal_node_id":"0.0-4.0-0.1"},{"rt":1004,"response":3,"all_choices":["../static/human_exp_images/practice_img/01_0.png","../static/human_exp_images/practice_img/01_1.png","../static/human_exp_images/practice_img/01_2.png","../static/human_exp_images/practice_img/01_3.png"],"task":"response","correct_response":3,"shuffled_array":[0,1,2,3],"catch_trial":false,"trial_type":"image-click","trial_index":9,"time_elapsed":13557,"internal_node_id":"0.0-4.0-1.1","mouse_tracking_data":[{"x":1047,"y":472,"t":1,"event":"mousemove"},{"x":1034,"y":467,"t":13,"event":"mousemove"},{"x":1025,"y":462,"t":30,"event":"mousemove"},{"x":1022,"y":462,"t":47,"event":"mousemove"},{"x":1020,"y":462,"t":92,"event":"mousemove"},{"x":1018,"y":462,"t":97,"event":"mousemove"},{"x":1015,"y":462,"t":114,"event":"mousemove"},{"x":1013,"y":462,"t":130,"event":"mousemove"},{"x":1011,"y":462,"t":192,"event":"mousemove"},{"x":1014,"y":462,"t":657,"event":"mousemove"},{"x":1016,"y":462,"t":658,"event":"mousemove"},{"x":1029,"y":462,"t":674,"event":"mousemove"},{"x":1039,"y":469,"t":691,"event":"mousemove"},{"x":1064,"y":492,"t":708,"event":"mousemove"},{"x":1087,"y":515,"t":725,"event":"mousemove"},{"x":1109,"y":547,"t":741,"event":"mousemove"},{"x":1125,"y":568,"t":759,"event":"mousemove"},{"x":1133,"y":581,"t":774,"event":"mousemove"},{"x":1148,"y":606,"t":792,"event":"mousemove"},{"x":1152,"y":616,"t":808,"event":"mousemove"},{"x":1153,"y":623,"t":825,"event":"mousemove"},{"x":1153,"y":628,"t":843,"event":"mousemove"},{"x":1153,"y":630,"t":865,"event":"mousemove"}],"mouse_tracking_targets":{},"correct":true},{"rt":803,"stimulus":"<p>How confident are you about your choice ? (click on the bar)</p>","slider_start":50,"response":81,"trial_type":"html-slider-response","trial_index":10,"time_elapsed":14361,"internal_node_id":"0.0-4.0-2.1"},{"rt":null,"stimulus":"\n        <div id='jspsych-image' style='position: relative; width: min(80vw, 80vh); height: min(80vw, 80vh);'>\n                \n                <div style='position: absolute; top: 40%; left: 30%; bottom: 40%; right: 30%;'><h1 style='font-size: 60px; color: green;'>Correct!</h1></div>\n                \n                <div class='jspsych-image' id='jspsych-image-0' data-choice='0' style='top: 0;     left: 0;'><img style=\"width: 100%; height: 100%;\" src='../static/human_exp_images/practice_img/01_0.png' class=''></img></div>\n                <div class='jspsych-image' id='jspsych-image-1' data-choice='1' style='top: 0;     right: 0;'><img style=\"width: 100%; height: 100%;\" src='../static/human_exp_images/practice_img/01_1.png' class=''></img></div>\n                <div class='jspsych-image' id='jspsych-image-2' data-choice='2' style='bottom: 0;  left: 0;'><img style=\"width: 100%; height: 100%;\" src='../static/human_exp_images/practice_img/01_2.png' class=''></img></div>\n                <div class='jspsych-image' id='jspsych-image-3' data-choice='3' style='bottom: 0;  right: 0;'><img style=\"width: 100%; height: 100%;\" src='../static/human_exp_images/practice_img/01_3.png' class='correct-choice'></img></div>\n\n        </div>","response":null,"trial_type":"html-keyboard-response","trial_index":11,"time_elapsed":15862,"internal_node_id":"0.0-4.0-3.1"},{"rt":null,"trial_type":"image-click","trial_index":12,"time_elapsed":16366,"internal_node_id":"0.0-4.0-0.2"},{"rt":807,"response":3,"all_choices":["../static/human_exp_images/practice_img/02_2.png","../static/human_exp_images/practice_img/02_0.png","../static/human_exp_images/practice_img/02_1.png","../static/human_exp_images/practice_img/02_3.png"],"task":"response","correct_response":3,"shuffled_array":[2,0,1,3],"catch_trial":false,"trial_type":"image-click","trial_index":13,"time_elapsed":17175,"internal_node_id":"0.0-4.0-1.2","mouse_tracking_data":[{"x":1045,"y":475,"t":1,"event":"mousemove"},{"x":1031,"y":473,"t":13,"event":"mousemove"},{"x":1020,"y":471,"t":30,"event":"mousemove"},{"x":1011,"y":471,"t":47,"event":"mousemove"},{"x":1008,"y":471,"t":64,"event":"mousemove"},{"x":1002,"y":471,"t":80,"event":"mousemove"},{"x":1001,"y":471,"t":97,"event":"mousemove"},{"x":999,"y":471,"t":113,"event":"mousemove"},{"x":1001,"y":471,"t":331,"event":"mousemove"},{"x":1003,"y":471,"t":333,"event":"mousemove"},{"x":1016,"y":483,"t":349,"event":"mousemove"},{"x":1023,"y":492,"t":366,"event":"mousemove"},{"x":1032,"y":500,"t":382,"event":"mousemove"},{"x":1037,"y":509,"t":399,"event":"mousemove"},{"x":1040,"y":514,"t":416,"event":"mousemove"},{"x":1044,"y":517,"t":432,"event":"mousemove"},{"x":1045,"y":519,"t":450,"event":"mousemove"},{"x":1047,"y":521,"t":496,"event":"mousemove"},{"x":1049,"y":522,"t":503,"event":"mousemove"},{"x":1050,"y":522,"t":505,"event":"mousemove"},{"x":1054,"y":527,"t":521,"event":"mousemove"},{"x":1066,"y":536,"t":538,"event":"mousemove"},{"x":1091,"y":563,"t":577,"event":"mousemove"},{"x":1095,"y":568,"t":584,"event":"mousemove"},{"x":1097,"y":570,"t":585,"event":"mousemove"},{"x":1102,"y":579,"t":600,"event":"mousemove"},{"x":1114,"y":596,"t":618,"event":"mousemove"},{"x":1126,"y":622,"t":634,"event":"mousemove"},{"x":1129,"y":628,"t":651,"event":"mousemove"},{"x":1131,"y":635,"t":667,"event":"mousemove"},{"x":1133,"y":637,"t":684,"event":"mousemove"}],"mouse_tracking_targets":{},"correct":true},{"rt":1240,"stimulus":"<p>How confident are you about your choice ? (click on the bar)</p>","slider_start":50,"response":90,"trial_type":"html-slider-response","trial_index":14,"time_elapsed":18419,"internal_node_id":"0.0-4.0-2.2"},{"rt":null,"stimulus":"\n        <div id='jspsych-image' style='position: relative; width: min(80vw, 80vh); height: min(80vw, 80vh);'>\n                \n                <div style='position: absolute; top: 40%; left: 30%; bottom: 40%; right: 30%;'><h1 style='font-size: 60px; color: green;'>Correct!</h1></div>\n                \n                <div class='jspsych-image' id='jspsych-image-0' data-choice='0' style='top: 0;     left: 0;'><img style=\"width: 100%; height: 100%;\" src='../static/human_exp_images/practice_img/02_2.png' class=''></img></div>\n                <div class='jspsych-image' id='jspsych-image-1' data-choice='1' style='top: 0;     right: 0;'><img style=\"width: 100%; height: 100%;\" src='../static/human_exp_images/practice_img/02_0.png' class=''></img></div>\n                <div class='jspsych-image' id='jspsych-image-2' data-choice='2' style='bottom: 0;  left: 0;'><img style=\"width: 100%; height: 100%;\" src='../static/human_exp_images/practice_img/02_1.png' class=''></img></div>\n                <div class='jspsych-image' id='jspsych-image-3' data-choice='3' style='bottom: 0;  right: 0;'><img style=\"width: 100%; height: 100%;\" src='../static/human_exp_images/practice_img/02_3.png' class='correct-choice'></img></div>\n\n        </div>","response":null,"trial_type":"html-keyboard-response","trial_index":15,"time_elapsed":19922,"internal_node_id":"0.0-4.0-3.2"},{"rt":1021,"stimulus":"<p style='font-size: 40px'>The practice session is over. The experiment begin now!</p> \n                <p>Please take pauses on only at the \"new rule\" pages.</p> \n                <p>Press any key to begin.</p>","response":" ","trial_type":"html-keyboard-response","trial_index":16,"time_elapsed":20946,"internal_node_id":"0.0-5.0"},{"success":true,"timeout":false,"failed_images":[],"failed_audio":[],"failed_video":[],"trial_type":"preload","trial_index":17,"time_elapsed":21148,"internal_node_id":"0.0-6.0"},{"rt":863,"stimulus":"<h1 style='font-size: 60px'>New Rule!</h1> <p>Press any key to begin.</p>","response":" ","trial_type":"html-keyboard-response","trial_index":18,"time_elapsed":22013,"internal_node_id":"0.0-7.0"}]