[{"success":true,"timeout":false,"failed_images":[],"failed_audio":[],"failed_video":[],"trial_type":"preload","trial_index":0,"time_elapsed":14,"internal_node_id":"0.0-0.0"},{"rt":1062,"stimulus":"<p style='font-size: 40px'>Welcome to the experiment.</p><p style='font-size: 30px'>Press any key to begin.</p>","response":" ","trial_type":"html-keyboard-response","trial_index":1,"time_elapsed":1077,"internal_node_id":"0.0-1.0"},{"rt":1571,"stimulus":"\n    <p>In this experiment, 4 images will appear on the screen. 3 out of 4 images were generated with a certain rule while one image (the odd one out) does not respect this rule. Select the odd one out by clicking on the image.</p>\n    <p>Following your choice, you will be asked to rate how confident you were about your choice on a scale from 1 to 100. Then, you will receive feedback on the trial.</p>\n    <p>For each rule you will perform 20 trials. You will be notified at each rule change. </p>\n    <p> Press any button to continue </p>\n    <div style='margin: auto; position: relative; width: 400px; height: 400px;'>\n        <div style='position: absolute; top: 0;     left: 0; '><img src='../static/img/square.png'></img></div>\n        <div style='position: absolute; top: 0;     right: 0;'><img src='../static/img/square.png'></img></div>\n        <div style='position: absolute; bottom: 0;  left: 0; '><img src='../static/img/square.png'></img></div>\n        <div style='position: absolute; bottom: 0;  right: 0;'><img src='../static/img/square.png'></img></div>\n    </div>\n","response":" ","trial_type":"html-keyboard-response","trial_index":2,"time_elapsed":2651,"internal_node_id":"0.0-2.0"},{"rt":994,"stimulus":"<h1 style='font-size: 60px'>New Rule!</h1> <p>Press any key to begin.</p>","response":" ","trial_type":"html-keyboard-response","trial_index":3,"time_elapsed":5648,"internal_node_id":"0.0-3.0"},{"rt":735,"response":3,"all_choices":["../static/human_exp_images/task_shape/00_0.png","../static/human_exp_images/task_shape/00_1.png","../static/human_exp_images/task_shape/00_3.png","../static/human_exp_images/task_shape/00_2.png"],"task":"response","correct_response":2,"shuffled_array":[0,1,3,2],"trial_type":"image-click","trial_index":4,"time_elapsed":6388,"internal_node_id":"0.0-4.0-0.0","mouse_tracking_data":[{"x":906,"y":539,"t":393,"event":"mousemove"},{"x":940,"y":533,"t":409,"event":"mousemove"},{"x":977,"y":533,"t":427,"event":"mousemove"},{"x":1005,"y":533,"t":443,"event":"mousemove"},{"x":1019,"y":533,"t":460,"event":"mousemove"},{"x":1036,"y":545,"t":476,"event":"mousemove"},{"x":1045,"y":551,"t":493,"event":"mousemove"},{"x":1051,"y":556,"t":509,"event":"mousemove"},{"x":1062,"y":561,"t":527,"event":"mousemove"},{"x":1071,"y":566,"t":542,"event":"mousemove"},{"x":1083,"y":566,"t":560,"event":"mousemove"},{"x":1095,"y":567,"t":576,"event":"mousemove"},{"x":1108,"y":567,"t":593,"event":"mousemove"},{"x":1115,"y":567,"t":609,"event":"mousemove"},{"x":1117,"y":567,"t":626,"event":"mousemove"},{"x":1121,"y":567,"t":643,"event":"mousemove"},{"x":1123,"y":567,"t":660,"event":"mousemove"},{"x":1124,"y":567,"t":677,"event":"mousemove"}],"mouse_tracking_targets":{},"correct":false},{"rt":892,"stimulus":"<p>How confident are you about your choice ?</p>","slider_start":50,"response":50,"trial_type":"html-slider-response","trial_index":5,"time_elapsed":7283,"internal_node_id":"0.0-4.0-1.0"},{"rt":null,"stimulus":"\n        <div id='jspsych-image' style='position: relative; width: min(80vw, 80vh); height: min(80vw, 80vh);'>\n                \n                <div style='position: absolute; top: 40%; left: 30%; bottom: 40%; right: 30%;'><h1 style='font-size: 60px; color: red'>Wrong</h1></div>\n                \n                <div class='jspsych-image' id='jspsych-image-0' data-choice='0' style='top: 0;     left: 0;'><img style=\"max-width: 100%; max-height: 100%;\" src='../static/human_exp_images/task_shape/00_0.png' class=''></img></div>\n                <div class='jspsych-image' id='jspsych-image-1' data-choice='1' style='top: 0;     right: 0;'><img style=\"max-width: 100%; max-height: 100%;\" src='../static/human_exp_images/task_shape/00_1.png' class=''></img></div>\n                <div class='jspsych-image' id='jspsych-image-2' data-choice='2' style='bottom: 0;  left: 0;'><img style=\"max-width: 100%; max-height: 100%;\" src='../static/human_exp_images/task_shape/00_3.png' class='correct-choice'></img></div>\n                <div class='jspsych-image' id='jspsych-image-3' data-choice='3' style='bottom: 0;  right: 0;'><img style=\"max-width: 100%; max-height: 100%;\" src='../static/human_exp_images/task_shape/00_2.png' class='wrong-choice'></img></div>\n\n        </div>","response":null,"trial_type":"html-keyboard-response","trial_index":6,"time_elapsed":9787,"internal_node_id":"0.0-4.0-2.0"},{"rt":1102,"stimulus":"<p>You responded correctly on 0% of the trials.</p>\n    <p>Your average response time was NaNms.</p>\n    <p>Press any key to complete the experiment. Thank you!</p>","response":" ","trial_type":"html-keyboard-response","trial_index":7,"time_elapsed":10892,"internal_node_id":"0.0-5.0","interactions":"[]"}]