[{"success":true,"timeout":false,"failed_images":[],"failed_audio":[],"failed_video":[],"trial_type":"preload","trial_index":0,"time_elapsed":2013,"internal_node_id":"0.0-0.0"},{"rt":1552,"stimulus":"<p style='font-size: 40px'>Welcome to the experiment.</p><p style='font-size: 30px'>Press any key to begin.</p>","response":" ","trial_type":"html-keyboard-response","trial_index":1,"time_elapsed":3565,"internal_node_id":"0.0-1.0"},{"rt":392,"stimulus":"\n    <p>In this experiment, 4 images will appear on the screen. 3 out of 4 images were generated with a certain rule while one image (the odd one out) does not respect this rule.</p>\n    <p>Select the odd one out by clicking on the image.</p>\n    <p>Following your choice, you will be asked to rate how confident you were about your choice on a scale from 1 to 100. Then, you will receive feedback on the trial.</p>\n    <p>For each rule you will perform 21 trials. You will be notified at each rule change.</p>\n    <p>The following 3 trials will allow you to get familiar with the odd-one-out task. The experiment starts after this practice session.</p>\n    \n    <p>Press any button to continue</p>\n    <div style='margin: auto; position: relative; width: 400px; height: 400px;'>\n        <div style='position: absolute; top: 0;     left: 0; '><img src='../static/img/square.png'></img></div>\n        <div style='position: absolute; top: 0;     right: 0;'><img src='../static/img/square.png'></img></div>\n        <div style='position: absolute; bottom: 0;  left: 0; '><img src='../static/img/square.png'></img></div>\n        <div style='position: absolute; bottom: 0;  right: 0;'><img src='../static/img/square.png'></img></div>\n    </div>\n","response":" ","trial_type":"html-keyboard-response","trial_index":2,"time_elapsed":3959,"internal_node_id":"0.0-2.0"},{"rt":null,"trial_type":"image-click","trial_index":3,"time_elapsed":5977,"internal_node_id":"0.0-3.0-0.0"},{"rt":1253,"response":1,"all_choices":["../static/human_exp_images/practice_img/00_2.png","../static/human_exp_images/practice_img/00_3.png","../static/human_exp_images/practice_img/00_1.png","../static/human_exp_images/practice_img/00_0.png"],"task":"response","correct_response":1,"shuffled_array":[2,3,1,0],"catch_trial":false,"trial_type":"image-click","trial_index":4,"time_elapsed":7235,"internal_node_id":"0.0-3.0-1.0","mouse_tracking_data":[{"x":576,"y":396,"t":815,"event":"mousemove"},{"x":576,"y":398,"t":819,"event":"mousemove"},{"x":576,"y":401,"t":824,"event":"mousemove"},{"x":576,"y":403,"t":826,"event":"mousemove"},{"x":576,"y":401,"t":879,"event":"mousemove"},{"x":576,"y":398,"t":881,"event":"mousemove"},{"x":589,"y":362,"t":897,"event":"mousemove"},{"x":606,"y":328,"t":914,"event":"mousemove"},{"x":631,"y":286,"t":930,"event":"mousemove"},{"x":652,"y":256,"t":947,"event":"mousemove"},{"x":666,"y":240,"t":963,"event":"mousemove"},{"x":677,"y":231,"t":980,"event":"mousemove"},{"x":687,"y":222,"t":996,"event":"mousemove"},{"x":694,"y":217,"t":1014,"event":"mousemove"},{"x":699,"y":215,"t":1030,"event":"mousemove"},{"x":704,"y":212,"t":1047,"event":"mousemove"},{"x":704,"y":210,"t":1064,"event":"mousemove"}],"mouse_tracking_targets":{},"correct":true}]