[{"success":true,"timeout":false,"failed_images":[],"failed_audio":[],"failed_video":[],"trial_type":"preload","trial_index":0,"time_elapsed":29,"internal_node_id":"0.0-0.0"},{"rt":870,"stimulus":"<p style='font-size: 40px'>Welcome to the experiment.</p><p style='font-size: 30px'>Press any key to begin.</p>","response":" ","trial_type":"html-keyboard-response","trial_index":1,"time_elapsed":899,"internal_node_id":"0.0-1.0"},{"rt":1545,"stimulus":"\n    <p>In this experiment, 4 images will appear on the screen. 3 out of 4 images were generated with a certain rule while one image (the odd one out) does not respect this rule. Select the odd one out by clicking on the image.</p>\n    <p>Following your choice, you will be asked to rate how confident you were about your choice on a scale from 1 to 100. Then, you will receive feedback on the trial.</p>\n    <p>For each rule you will perform 20 trials. You will be notified at each rule change. </p>\n    <p> Press any button to continue </p>\n    <div style='margin: auto; position: relative; width: 400px; height: 400px;'>\n        <div style='position: absolute; top: 0;     left: 0; '><img src='../static/img/square.png'></img></div>\n        <div style='position: absolute; top: 0;     right: 0;'><img src='../static/img/square.png'></img></div>\n        <div style='position: absolute; bottom: 0;  left: 0; '><img src='../static/img/square.png'></img></div>\n        <div style='position: absolute; bottom: 0;  right: 0;'><img src='../static/img/square.png'></img></div>\n    </div>\n","response":" ","trial_type":"html-keyboard-response","trial_index":2,"time_elapsed":2447,"internal_node_id":"0.0-2.0"},{"rt":995,"stimulus":"<h1 style='font-size: 60px'>New Rule!</h1> <p>Press any key to begin.</p>","response":" ","trial_type":"html-keyboard-response","trial_index":3,"time_elapsed":5444,"internal_node_id":"0.0-3.0"},{"rt":null,"trial_type":"image-click","trial_index":4,"time_elapsed":6166,"internal_node_id":"0.0-4.0-0.0"},{"rt":4153,"response":2,"all_choices":["../static/human_exp_images/task_pos/00_1.png","../static/human_exp_images/task_pos/00_0.png","../static/human_exp_images/task_pos/00_3.png","../static/human_exp_images/task_pos/00_2.png"],"task":"response","correct_response":2,"shuffled_array":[1,0,3,2],"trial_type":"image-click","trial_index":5,"time_elapsed":10324,"internal_node_id":"0.0-4.0-1.0","mouse_tracking_data":[{"x":930,"y":435,"t":1,"event":"mousemove"},{"x":911,"y":418,"t":11,"event":"mousemove"},{"x":904,"y":411,"t":27,"event":"mousemove"},{"x":901,"y":410,"t":44,"event":"mousemove"},{"x":899,"y":408,"t":61,"event":"mousemove"},{"x":897,"y":406,"t":77,"event":"mousemove"},{"x":897,"y":406,"t":115,"event":"mousemove"},{"x":895,"y":406,"t":128,"event":"mousemove"},{"x":893,"y":405,"t":159,"event":"mousemove"},{"x":890,"y":403,"t":169,"event":"mousemove"},{"x":886,"y":402,"t":177,"event":"mousemove"},{"x":873,"y":395,"t":194,"event":"mousemove"},{"x":866,"y":392,"t":211,"event":"mousemove"},{"x":862,"y":391,"t":228,"event":"mousemove"},{"x":859,"y":390,"t":244,"event":"mousemove"},{"x":859,"y":391,"t":3607,"event":"mousemove"},{"x":859,"y":393,"t":3616,"event":"mousemove"},{"x":859,"y":395,"t":3619,"event":"mousemove"},{"x":859,"y":400,"t":3624,"event":"mousemove"},{"x":859,"y":402,"t":3628,"event":"mousemove"},{"x":854,"y":410,"t":3633,"event":"mousemove"},{"x":844,"y":416,"t":3635,"event":"mousemove"},{"x":811,"y":460,"t":3651,"event":"mousemove"},{"x":787,"y":492,"t":3669,"event":"mousemove"},{"x":758,"y":534,"t":3686,"event":"mousemove"},{"x":743,"y":558,"t":3702,"event":"mousemove"},{"x":740,"y":569,"t":3718,"event":"mousemove"},{"x":735,"y":575,"t":3735,"event":"mousemove"},{"x":729,"y":583,"t":3752,"event":"mousemove"},{"x":724,"y":589,"t":3768,"event":"mousemove"},{"x":721,"y":596,"t":3785,"event":"mousemove"},{"x":715,"y":603,"t":3801,"event":"mousemove"},{"x":709,"y":614,"t":3818,"event":"mousemove"},{"x":707,"y":619,"t":3835,"event":"mousemove"}],"mouse_tracking_targets":{},"correct":true},{"rt":2093,"stimulus":"<p>How confident are you about your choice ?</p>","slider_start":50,"response":77,"trial_type":"html-slider-response","trial_index":6,"time_elapsed":12420,"internal_node_id":"0.0-4.0-2.0"},{"rt":null,"stimulus":"\n        <div id='jspsych-image' style='position: relative; width: min(80vw, 80vh); height: min(80vw, 80vh);'>\n                \n                <div style='position: absolute; top: 40%; left: 30%; bottom: 40%; right: 30%;'><h1 style='font-size: 60px; color: green;'>Correct!</h1></div>\n                \n                <div class='jspsych-image' id='jspsych-image-0' data-choice='0' style='top: 0;     left: 0;'><img style=\"max-width: 100%; max-height: 100%;\" src='../static/human_exp_images/task_pos/00_1.png' class=''></img></div>\n                <div class='jspsych-image' id='jspsych-image-1' data-choice='1' style='top: 0;     right: 0;'><img style=\"max-width: 100%; max-height: 100%;\" src='../static/human_exp_images/task_pos/00_0.png' class=''></img></div>\n                <div class='jspsych-image' id='jspsych-image-2' data-choice='2' style='bottom: 0;  left: 0;'><img style=\"max-width: 100%; max-height: 100%;\" src='../static/human_exp_images/task_pos/00_3.png' class='correct-choice'></img></div>\n                <div class='jspsych-image' id='jspsych-image-3' data-choice='3' style='bottom: 0;  right: 0;'><img style=\"max-width: 100%; max-height: 100%;\" src='../static/human_exp_images/task_pos/00_2.png' class=''></img></div>\n\n        </div>","response":null,"trial_type":"html-keyboard-response","trial_index":7,"time_elapsed":13924,"internal_node_id":"0.0-4.0-3.0"}]