[{"success":true,"timeout":false,"failed_images":[],"failed_audio":[],"failed_video":[],"trial_type":"preload","trial_index":0,"time_elapsed":9,"internal_node_id":"0.0-0.0"},{"rt":1146,"stimulus":"<p style='font-size: 40px'>Welcome to the experiment.</p><p style='font-size: 30px'>Press any key to begin.</p>","response":" ","trial_type":"html-keyboard-response","trial_index":1,"time_elapsed":1157,"internal_node_id":"0.0-1.0"},{"rt":1602,"stimulus":"\n    <p>In this experiment, 4 images will appear on the screen. 3 out of 4 images were generated with a certain rule while one image (the odd one out) does not respect this rule. Select the odd one out by clicking on the image.</p>\n    <p>Following your choice, you will be asked to rate how confident you were about your choice on a scale from 1 to 100. Then, you will receive feedback on the trial.</p>\n    <p>For each rule you will perform 20 trials. You will be notified at each rule change. </p>\n    <p> Press any button to continue </p>\n    <div style='margin: auto; position: relative; width: 400px; height: 400px;'>\n        <div style='position: absolute; top: 0;     left: 0; '><img src='../static/img/square.png'></img></div>\n        <div style='position: absolute; top: 0;     right: 0;'><img src='../static/img/square.png'></img></div>\n        <div style='position: absolute; bottom: 0;  left: 0; '><img src='../static/img/square.png'></img></div>\n        <div style='position: absolute; bottom: 0;  right: 0;'><img src='../static/img/square.png'></img></div>\n    </div>\n","response":" ","trial_type":"html-keyboard-response","trial_index":2,"time_elapsed":2763,"internal_node_id":"0.0-2.0"},{"rt":813,"stimulus":"<h1 style='font-size: 60px'>New Rule!</h1> <p>Press any key to begin.</p>","response":" ","trial_type":"html-keyboard-response","trial_index":3,"time_elapsed":5579,"internal_node_id":"0.0-3.0"},{"rt":799,"response":1,"all_choices":["../static/human_exp_images/task_shape/00_1.png","../static/human_exp_images/task_shape/00_2.png","../static/human_exp_images/task_shape/00_3.png","../static/human_exp_images/task_shape/00_0.png"],"task":"response","correct_response":2,"shuffled_array":[1,2,3,0],"trial_type":"image-click","trial_index":4,"time_elapsed":6383,"internal_node_id":"0.0-4.0-0.0","mouse_tracking_data":[{"x":1064,"y":352,"t":336,"event":"mousemove"},{"x":1064,"y":353,"t":364,"event":"mousemove"},{"x":1067,"y":353,"t":380,"event":"mousemove"},{"x":1074,"y":353,"t":382,"event":"mousemove"},{"x":1092,"y":357,"t":398,"event":"mousemove"},{"x":1099,"y":357,"t":415,"event":"mousemove"},{"x":1104,"y":357,"t":431,"event":"mousemove"},{"x":1107,"y":357,"t":448,"event":"mousemove"},{"x":1111,"y":349,"t":464,"event":"mousemove"},{"x":1116,"y":326,"t":482,"event":"mousemove"},{"x":1121,"y":303,"t":498,"event":"mousemove"},{"x":1135,"y":269,"t":515,"event":"mousemove"},{"x":1147,"y":238,"t":531,"event":"mousemove"},{"x":1158,"y":218,"t":549,"event":"mousemove"},{"x":1166,"y":209,"t":564,"event":"mousemove"},{"x":1168,"y":207,"t":581,"event":"mousemove"},{"x":1170,"y":207,"t":626,"event":"mousemove"},{"x":1170,"y":205,"t":635,"event":"mousemove"},{"x":1173,"y":203,"t":649,"event":"mousemove"},{"x":1180,"y":198,"t":665,"event":"mousemove"},{"x":1187,"y":190,"t":682,"event":"mousemove"},{"x":1190,"y":186,"t":698,"event":"mousemove"},{"x":1192,"y":183,"t":715,"event":"mousemove"}],"mouse_tracking_targets":{},"correct":false},{"rt":855,"stimulus":"<p>How confident are you about your choice ?</p>","slider_start":50,"response":50,"trial_type":"html-slider-response","trial_index":5,"time_elapsed":7241,"internal_node_id":"0.0-4.0-1.0"},{"rt":null,"stimulus":"\n        <div id='jspsych-image' style='position: relative; width: min(80vw, 80vh); height: min(80vw, 80vh);'>\n                \n                <div style='position: absolute; top: 40%; left: 30%; bottom: 40%; right: 30%;'><h1 style='font-size: 60px; color: red'>Wrong</h1></div>\n                \n                <div class='jspsych-image' id='jspsych-image-0' data-choice='0' style='top: 0;     left: 0;'><img style=\"max-width: 100%; max-height: 100%;\" src='../static/human_exp_images/task_shape/00_1.png' class=''></img></div>\n                <div class='jspsych-image' id='jspsych-image-1' data-choice='1' style='top: 0;     right: 0;'><img style=\"max-width: 100%; max-height: 100%;\" src='../static/human_exp_images/task_shape/00_2.png' class='wrong-choice'></img></div>\n                <div class='jspsych-image' id='jspsych-image-2' data-choice='2' style='bottom: 0;  left: 0;'><img style=\"max-width: 100%; max-height: 100%;\" src='../static/human_exp_images/task_shape/00_3.png' class='correct-choice'></img></div>\n                <div class='jspsych-image' id='jspsych-image-3' data-choice='3' style='bottom: 0;  right: 0;'><img style=\"max-width: 100%; max-height: 100%;\" src='../static/human_exp_images/task_shape/00_0.png' class=''></img></div>\n\n        </div>","response":null,"trial_type":"html-keyboard-response","trial_index":6,"time_elapsed":9746,"internal_node_id":"0.0-4.0-2.0"},{"rt":1112,"stimulus":"<p>You responded correctly on 0% of the trials.</p>\n    <p>Your average response time was NaNms.</p>\n    <p>Press any key to complete the experiment. Thank you!</p>","response":" ","trial_type":"html-keyboard-response","trial_index":7,"time_elapsed":10861,"internal_node_id":"0.0-5.0","interactions":"[]"}]