[{"rt":737,"stimulus":"<p style='font-size: 40px'>Welcome to the experiment.</p><p style='font-size: 30px'>Press any key to begin.</p>","response":" ","trial_type":"html-keyboard-response","trial_index":0,"time_elapsed":738,"internal_node_id":"0.0-0.0"},{"rt":1450,"stimulus":"\n    <p>This experiment aims to measure humans' visual reasoning skills. You will go through a practice session consisting of 3 trials, followed by 6 blocks of 21 trials.</p>\n    <p>When presented with an empty square in the middle of the screen, place your cursor on it to start the trial.</p>\n    <p>4 images will appear on the screen. 3 out of 4 images were generated with a certain rule while one image (the odd one out) does not respect this rule.</p>\n    <p>Select the odd one out by clicking on the image.</p>\n    <p>Following your choice, you will be asked to rate how confident you were about your choice on a scale from 0 to 100. Then, you will receive feedback on the trial.</p>\n    <p>The 21 trials of a block use the same rule and each block uses a different rule. At the end of each block, you will asked to describe the rule before starting a new block.</p>\n    <p>Please do not take breaks only in between blocks not in between trials.</p>\n    <p>The following 3 trials will allow you to get familiar with the odd-one-out task. The experiment starts after this practice session.</p>\n    \n    <p>Press any button to continue</p>\n    <div style='margin: auto; position: relative; width: 400px; height: 400px;'>\n        <div style='position: absolute; top: 0;     left: 0; '><img src='../static/img/square.png'></img></div>\n        <div style='position: absolute; top: 0;     right: 0;'><img src='../static/img/square.png'></img></div>\n        <div style='position: absolute; bottom: 0;  left: 0; '><img src='../static/img/square.png'></img></div>\n        <div style='position: absolute; bottom: 0;  right: 0;'><img src='../static/img/square.png'></img></div>\n    </div>\n","response":" ","trial_type":"html-keyboard-response","trial_index":1,"time_elapsed":2192,"internal_node_id":"0.0-1.0"},{"rt":69333,"response":{"Instruction Check":["The practice session contains as many trials as the other blocks.","There are 6 blocks of 21 trials.","The tasks consists of choosing one image that's different from the other three."]},"question_order":[0],"trial_type":"survey-multi-select","trial_index":2,"time_elapsed":73535,"internal_node_id":"0.0-2.0"},{"success":true,"timeout":false,"failed_images":[],"failed_audio":[],"failed_video":[],"trial_type":"preload","trial_index":3,"time_elapsed":73594,"internal_node_id":"0.0-3.0"},{"rt":null,"trial_type":"image-click","trial_index":4,"time_elapsed":74475,"internal_node_id":"0.0-4.0-0.0"},{"rt":881,"response":0,"all_choices":["../static/human_exp_images/practice_img/00_3.png","../static/human_exp_images/practice_img/00_2.png","../static/human_exp_images/practice_img/00_0.png","../static/human_exp_images/practice_img/00_1.png"],"task":"response","correct_response":0,"shuffled_array":[3,2,0,1],"catch_trial":false,"trial_type":"image-click","trial_index":5,"time_elapsed":75361,"internal_node_id":"0.0-4.0-1.0","mouse_tracking_data":[{"x":966,"y":539,"t":2,"event":"mousemove"},{"x":968,"y":521,"t":12,"event":"mousemove"},{"x":968,"y":509,"t":29,"event":"mousemove"},{"x":969,"y":498,"t":46,"event":"mousemove"},{"x":971,"y":488,"t":63,"event":"mousemove"},{"x":973,"y":480,"t":79,"event":"mousemove"},{"x":974,"y":475,"t":96,"event":"mousemove"},{"x":974,"y":473,"t":113,"event":"mousemove"},{"x":976,"y":473,"t":260,"event":"mousemove"},{"x":978,"y":473,"t":271,"event":"mousemove"},{"x":981,"y":473,"t":279,"event":"mousemove"},{"x":986,"y":473,"t":287,"event":"mousemove"},{"x":988,"y":473,"t":291,"event":"mousemove"},{"x":993,"y":473,"t":296,"event":"mousemove"},{"x":995,"y":473,"t":297,"event":"mousemove"},{"x":1004,"y":471,"t":314,"event":"mousemove"},{"x":1019,"y":469,"t":331,"event":"mousemove"},{"x":1033,"y":468,"t":347,"event":"mousemove"},{"x":1044,"y":468,"t":364,"event":"mousemove"},{"x":1051,"y":468,"t":381,"event":"mousemove"},{"x":1060,"y":468,"t":397,"event":"mousemove"},{"x":1065,"y":468,"t":413,"event":"mousemove"},{"x":1072,"y":468,"t":431,"event":"mousemove"},{"x":1077,"y":468,"t":448,"event":"mousemove"},{"x":1080,"y":468,"t":463,"event":"mousemove"},{"x":1084,"y":468,"t":481,"event":"mousemove"},{"x":1087,"y":468,"t":497,"event":"mousemove"},{"x":1087,"y":466,"t":533,"event":"mousemove"},{"x":1087,"y":464,"t":546,"event":"mousemove"},{"x":1087,"y":463,"t":551,"event":"mousemove"},{"x":1087,"y":461,"t":553,"event":"mousemove"},{"x":1080,"y":454,"t":570,"event":"mousemove"},{"x":1058,"y":442,"t":587,"event":"mousemove"},{"x":1013,"y":419,"t":603,"event":"mousemove"},{"x":952,"y":389,"t":619,"event":"mousemove"},{"x":885,"y":362,"t":636,"event":"mousemove"},{"x":798,"y":333,"t":653,"event":"mousemove"},{"x":732,"y":318,"t":669,"event":"mousemove"},{"x":685,"y":307,"t":686,"event":"mousemove"},{"x":628,"y":297,"t":703,"event":"mousemove"},{"x":602,"y":291,"t":719,"event":"mousemove"},{"x":591,"y":291,"t":736,"event":"mousemove"},{"x":591,"y":290,"t":789,"event":"mousemove"},{"x":591,"y":288,"t":836,"event":"mousemove"}],"mouse_tracking_targets":{},"correct":true},{"rt":1429,"stimulus":"<p>How confident are you about your choice ? (click on the bar)</p>","slider_start":50,"response":81,"trial_type":"html-slider-response","trial_index":6,"time_elapsed":76793,"internal_node_id":"0.0-4.0-2.0"},{"rt":null,"stimulus":"\n        <div id='jspsych-image' style='position: relative; width: min(80vw, 80vh); height: min(80vw, 80vh);'>\n                \n                <div style='position: absolute; top: 40%; left: 30%; bottom: 40%; right: 30%;'><h1 style='font-size: 60px; color: green;'>Correct!</h1></div>\n                \n                <div class='jspsych-image' id='jspsych-image-0' data-choice='0' style='top: 0;     left: 0;'><img style=\"width: 100%; height: 100%;\" src='../static/human_exp_images/practice_img/00_3.png' class='correct-choice'></img></div>\n                <div class='jspsych-image' id='jspsych-image-1' data-choice='1' style='top: 0;     right: 0;'><img style=\"width: 100%; height: 100%;\" src='../static/human_exp_images/practice_img/00_2.png' class=''></img></div>\n                <div class='jspsych-image' id='jspsych-image-2' data-choice='2' style='bottom: 0;  left: 0;'><img style=\"width: 100%; height: 100%;\" src='../static/human_exp_images/practice_img/00_0.png' class=''></img></div>\n                <div class='jspsych-image' id='jspsych-image-3' data-choice='3' style='bottom: 0;  right: 0;'><img style=\"width: 100%; height: 100%;\" src='../static/human_exp_images/practice_img/00_1.png' class=''></img></div>\n\n        </div>","response":null,"trial_type":"html-keyboard-response","trial_index":7,"time_elapsed":78296,"internal_node_id":"0.0-4.0-3.0"},{"rt":null,"trial_type":"image-click","trial_index":8,"time_elapsed":78299,"internal_node_id":"0.0-4.0-0.1"},{"rt":748,"response":1,"all_choices":["../static/human_exp_images/practice_img/01_2.png","../static/human_exp_images/practice_img/01_3.png","../static/human_exp_images/practice_img/01_1.png","../static/human_exp_images/practice_img/01_0.png"],"task":"response","correct_response":1,"shuffled_array":[2,3,1,0],"catch_trial":false,"trial_type":"image-click","trial_index":9,"time_elapsed":79051,"internal_node_id":"0.0-4.0-1.1","mouse_tracking_data":[{"x":893,"y":395,"t":405,"event":"mousemove"},{"x":897,"y":395,"t":455,"event":"mousemove"},{"x":903,"y":395,"t":457,"event":"mousemove"},{"x":942,"y":393,"t":473,"event":"mousemove"},{"x":986,"y":375,"t":491,"event":"mousemove"},{"x":1025,"y":358,"t":507,"event":"mousemove"},{"x":1074,"y":326,"t":524,"event":"mousemove"},{"x":1120,"y":300,"t":540,"event":"mousemove"},{"x":1160,"y":275,"t":557,"event":"mousemove"},{"x":1180,"y":261,"t":572,"event":"mousemove"},{"x":1186,"y":257,"t":590,"event":"mousemove"},{"x":1194,"y":252,"t":607,"event":"mousemove"},{"x":1199,"y":249,"t":624,"event":"mousemove"},{"x":1199,"y":247,"t":654,"event":"mousemove"}],"mouse_tracking_targets":{},"correct":true},{"rt":929,"stimulus":"<p>How confident are you about your choice ? (click on the bar)</p>","slider_start":50,"response":92,"trial_type":"html-slider-response","trial_index":10,"time_elapsed":79980,"internal_node_id":"0.0-4.0-2.1"},{"rt":null,"stimulus":"\n        <div id='jspsych-image' style='position: relative; width: min(80vw, 80vh); height: min(80vw, 80vh);'>\n                \n                <div style='position: absolute; top: 40%; left: 30%; bottom: 40%; right: 30%;'><h1 style='font-size: 60px; color: green;'>Correct!</h1></div>\n                \n                <div class='jspsych-image' id='jspsych-image-0' data-choice='0' style='top: 0;     left: 0;'><img style=\"width: 100%; height: 100%;\" src='../static/human_exp_images/practice_img/01_2.png' class=''></img></div>\n                <div class='jspsych-image' id='jspsych-image-1' data-choice='1' style='top: 0;     right: 0;'><img style=\"width: 100%; height: 100%;\" src='../static/human_exp_images/practice_img/01_3.png' class='correct-choice'></img></div>\n                <div class='jspsych-image' id='jspsych-image-2' data-choice='2' style='bottom: 0;  left: 0;'><img style=\"width: 100%; height: 100%;\" src='../static/human_exp_images/practice_img/01_1.png' class=''></img></div>\n                <div class='jspsych-image' id='jspsych-image-3' data-choice='3' style='bottom: 0;  right: 0;'><img style=\"width: 100%; height: 100%;\" src='../static/human_exp_images/practice_img/01_0.png' class=''></img></div>\n\n        </div>","response":null,"trial_type":"html-keyboard-response","trial_index":11,"time_elapsed":81484,"internal_node_id":"0.0-4.0-3.1"}]