[{"success":true,"timeout":false,"failed_images":[],"failed_audio":[],"failed_video":[],"trial_type":"preload","trial_index":0,"time_elapsed":386,"internal_node_id":"0.0-0.0"},{"rt":2320,"stimulus":"<p style='font-size: 40px'>Welcome to the experiment.</p><p style='font-size: 30px'>Press any key to begin.</p>","response":" ","trial_type":"html-keyboard-response","trial_index":1,"time_elapsed":2707,"internal_node_id":"0.0-1.0"},{"rt":390,"stimulus":"\n    <p>In this experiment, 4 images will appear on the screen. 3 out of 4 images were generated with a certain rule while one image (the odd one out) does not respect this rule. Select the odd one out by clicking on the image.</p>\n    <p>Following your choice, you will be asked to rate how confident you were about your choice on a scale from 1 to 100. Then, you will receive feedback on the trial.</p>\n    <p>For each rule you will perform 20 trials. You will be notified at each rule change. </p>\n    <p> Press any button to continue </p>\n    <div style='margin: auto; position: relative; width: 400px; height: 400px;'>\n        <div style='position: absolute; top: 0;     left: 0; '><img src='../static/img/square.png'></img></div>\n        <div style='position: absolute; top: 0;     right: 0;'><img src='../static/img/square.png'></img></div>\n        <div style='position: absolute; bottom: 0;  left: 0; '><img src='../static/img/square.png'></img></div>\n        <div style='position: absolute; bottom: 0;  right: 0;'><img src='../static/img/square.png'></img></div>\n    </div>\n","response":" ","trial_type":"html-keyboard-response","trial_index":2,"time_elapsed":3100,"internal_node_id":"0.0-2.0"},{"rt":61079,"stimulus":"<h1 style='font-size: 60px'>New Rule!</h1> <p>Press any key to begin.</p>","response":" ","trial_type":"html-keyboard-response","trial_index":3,"time_elapsed":66182,"internal_node_id":"0.0-3.0"},{"rt":null,"trial_type":"image-click","trial_index":4,"time_elapsed":68906,"internal_node_id":"0.0-4.0-0.0"},{"rt":1983,"response":1,"all_choices":["../static/human_exp_images/task_pos/00_0.png","../static/human_exp_images/task_pos/00_3.png","../static/human_exp_images/task_pos/00_2.png","../static/human_exp_images/task_pos/00_1.png"],"task":"response","correct_response":1,"shuffled_array":[0,3,2,1],"trial_type":"image-click","trial_index":5,"time_elapsed":70900,"internal_node_id":"0.0-4.0-1.0","mouse_tracking_data":[{"x":560,"y":443,"t":1,"event":"mousemove"},{"x":551,"y":443,"t":8,"event":"mousemove"},{"x":543,"y":443,"t":23,"event":"mousemove"},{"x":536,"y":443,"t":40,"event":"mousemove"},{"x":530,"y":443,"t":57,"event":"mousemove"},{"x":525,"y":443,"t":74,"event":"mousemove"},{"x":519,"y":443,"t":90,"event":"mousemove"},{"x":509,"y":443,"t":107,"event":"mousemove"},{"x":505,"y":443,"t":123,"event":"mousemove"},{"x":498,"y":443,"t":141,"event":"mousemove"},{"x":492,"y":443,"t":157,"event":"mousemove"},{"x":488,"y":443,"t":174,"event":"mousemove"},{"x":483,"y":443,"t":191,"event":"mousemove"},{"x":482,"y":443,"t":207,"event":"mousemove"},{"x":480,"y":443,"t":224,"event":"mousemove"},{"x":480,"y":442,"t":961,"event":"mousemove"},{"x":480,"y":436,"t":964,"event":"mousemove"},{"x":480,"y":435,"t":966,"event":"mousemove"},{"x":484,"y":424,"t":982,"event":"mousemove"},{"x":501,"y":406,"t":999,"event":"mousemove"},{"x":523,"y":379,"t":1015,"event":"mousemove"},{"x":544,"y":356,"t":1033,"event":"mousemove"},{"x":565,"y":335,"t":1049,"event":"mousemove"},{"x":579,"y":319,"t":1066,"event":"mousemove"},{"x":588,"y":310,"t":1082,"event":"mousemove"},{"x":598,"y":297,"t":1099,"event":"mousemove"},{"x":608,"y":290,"t":1116,"event":"mousemove"},{"x":614,"y":281,"t":1132,"event":"mousemove"},{"x":620,"y":275,"t":1148,"event":"mousemove"},{"x":633,"y":266,"t":1166,"event":"mousemove"},{"x":644,"y":257,"t":1182,"event":"mousemove"},{"x":653,"y":248,"t":1199,"event":"mousemove"},{"x":666,"y":236,"t":1216,"event":"mousemove"},{"x":679,"y":225,"t":1232,"event":"mousemove"},{"x":687,"y":215,"t":1249,"event":"mousemove"},{"x":695,"y":207,"t":1265,"event":"mousemove"},{"x":699,"y":201,"t":1282,"event":"mousemove"},{"x":702,"y":198,"t":1298,"event":"mousemove"},{"x":708,"y":194,"t":1316,"event":"mousemove"},{"x":708,"y":193,"t":1332,"event":"mousemove"},{"x":709,"y":192,"t":1348,"event":"mousemove"},{"x":710,"y":192,"t":1366,"event":"mousemove"},{"x":710,"y":190,"t":1453,"event":"mousemove"},{"x":710,"y":189,"t":1505,"event":"mousemove"}],"mouse_tracking_targets":{},"correct":true},{"rt":3113,"stimulus":"<p>How confident are you about your choice ?</p>","slider_start":50,"response":72,"trial_type":"html-slider-response","trial_index":6,"time_elapsed":74016,"internal_node_id":"0.0-4.0-2.0"},{"rt":null,"stimulus":"\n        <div id='jspsych-image' style='position: relative; width: min(80vw, 80vh); height: min(80vw, 80vh);'>\n                \n                <div style='position: absolute; top: 40%; left: 30%; bottom: 40%; right: 30%;'><h1 style='font-size: 60px; color: green;'>Correct!</h1></div>\n                \n                <div class='jspsych-image' id='jspsych-image-0' data-choice='0' style='top: 0;     left: 0;'><img style=\"max-width: 100%; max-height: 100%;\" src='../static/human_exp_images/task_pos/00_0.png' class=''></img></div>\n                <div class='jspsych-image' id='jspsych-image-1' data-choice='1' style='top: 0;     right: 0;'><img style=\"max-width: 100%; max-height: 100%;\" src='../static/human_exp_images/task_pos/00_3.png' class='correct-choice'></img></div>\n                <div class='jspsych-image' id='jspsych-image-2' data-choice='2' style='bottom: 0;  left: 0;'><img style=\"max-width: 100%; max-height: 100%;\" src='../static/human_exp_images/task_pos/00_2.png' class=''></img></div>\n                <div class='jspsych-image' id='jspsych-image-3' data-choice='3' style='bottom: 0;  right: 0;'><img style=\"max-width: 100%; max-height: 100%;\" src='../static/human_exp_images/task_pos/00_1.png' class=''></img></div>\n\n        </div>","response":null,"trial_type":"html-keyboard-response","trial_index":7,"time_elapsed":75518,"internal_node_id":"0.0-4.0-3.0"},{"rt":null,"trial_type":"image-click","trial_index":8,"time_elapsed":77468,"internal_node_id":"0.0-4.0-0.1"}]