[{"success":true,"timeout":false,"failed_images":[],"failed_audio":[],"failed_video":[],"trial_type":"preload","trial_index":0,"time_elapsed":2593,"internal_node_id":"0.0-0.0"},{"rt":1630,"stimulus":"<p style='font-size: 40px'>Welcome to the experiment.</p><p style='font-size: 30px'>Press any key to begin.</p>","response":" ","trial_type":"html-keyboard-response","trial_index":1,"time_elapsed":4224,"internal_node_id":"0.0-1.0"},{"rt":1203,"stimulus":"\n    <p>In this experiment, 4 images will appear on the screen. 3 out of 4 images were generated with a certain rule while one image (the odd one out) does not respect this rule.</p>\n    <p>Select the odd one out by clicking on the image.</p>\n    <p>Following your choice, you will be asked to rate how confident you were about your choice on a scale from 1 to 100. Then, you will receive feedback on the trial.</p>\n    <p>For each rule you will perform 21 trials. You will be notified at each rule change.</p>\n    <p>The following 3 trials will allow you to get familiar with the odd-one-out task. The experiment starts after this practice session.</p>\n    \n    <p>Press any button to continue</p>\n    <div style='margin: auto; position: relative; width: 400px; height: 400px;'>\n        <div style='position: absolute; top: 0;     left: 0; '><img src='../static/img/square.png'></img></div>\n        <div style='position: absolute; top: 0;     right: 0;'><img src='../static/img/square.png'></img></div>\n        <div style='position: absolute; bottom: 0;  left: 0; '><img src='../static/img/square.png'></img></div>\n        <div style='position: absolute; bottom: 0;  right: 0;'><img src='../static/img/square.png'></img></div>\n    </div>\n","response":" ","trial_type":"html-keyboard-response","trial_index":2,"time_elapsed":5430,"internal_node_id":"0.0-2.0"},{"rt":null,"trial_type":"image-click","trial_index":3,"time_elapsed":8245,"internal_node_id":"0.0-3.0-0.0"},{"rt":2442,"response":0,"all_choices":["../static/human_exp_images/practice_img/00_3.png","../static/human_exp_images/practice_img/00_0.png","../static/human_exp_images/practice_img/00_1.png","../static/human_exp_images/practice_img/00_2.png"],"task":"response","correct_response":0,"shuffled_array":[3,0,1,2],"catch_trial":false,"trial_type":"image-click","trial_index":4,"time_elapsed":10691,"internal_node_id":"0.0-3.0-1.0","mouse_tracking_data":[{"x":1049,"y":443,"t":1,"event":"mousemove"},{"x":1002,"y":462,"t":11,"event":"mousemove"},{"x":965,"y":481,"t":28,"event":"mousemove"},{"x":938,"y":497,"t":46,"event":"mousemove"},{"x":926,"y":501,"t":62,"event":"mousemove"},{"x":923,"y":503,"t":80,"event":"mousemove"},{"x":924,"y":503,"t":334,"event":"mousemove"},{"x":926,"y":503,"t":343,"event":"mousemove"},{"x":928,"y":503,"t":351,"event":"mousemove"},{"x":929,"y":503,"t":355,"event":"mousemove"},{"x":931,"y":503,"t":379,"event":"mousemove"},{"x":931,"y":501,"t":640,"event":"mousemove"},{"x":931,"y":499,"t":822,"event":"mousemove"},{"x":931,"y":498,"t":875,"event":"mousemove"},{"x":931,"y":496,"t":893,"event":"mousemove"},{"x":931,"y":494,"t":920,"event":"mousemove"},{"x":931,"y":492,"t":923,"event":"mousemove"},{"x":931,"y":489,"t":929,"event":"mousemove"},{"x":931,"y":487,"t":934,"event":"mousemove"},{"x":931,"y":484,"t":937,"event":"mousemove"},{"x":931,"y":480,"t":939,"event":"mousemove"},{"x":931,"y":472,"t":955,"event":"mousemove"},{"x":919,"y":450,"t":971,"event":"mousemove"},{"x":906,"y":423,"t":988,"event":"mousemove"},{"x":886,"y":396,"t":1005,"event":"mousemove"},{"x":873,"y":374,"t":1021,"event":"mousemove"},{"x":860,"y":359,"t":1039,"event":"mousemove"},{"x":852,"y":349,"t":1054,"event":"mousemove"},{"x":841,"y":339,"t":1072,"event":"mousemove"},{"x":833,"y":330,"t":1088,"event":"mousemove"},{"x":826,"y":321,"t":1104,"event":"mousemove"},{"x":819,"y":316,"t":1122,"event":"mousemove"},{"x":814,"y":311,"t":1138,"event":"mousemove"},{"x":811,"y":310,"t":1155,"event":"mousemove"},{"x":809,"y":308,"t":1172,"event":"mousemove"},{"x":809,"y":306,"t":1188,"event":"mousemove"},{"x":807,"y":306,"t":1531,"event":"mousemove"},{"x":807,"y":304,"t":1550,"event":"mousemove"}],"mouse_tracking_targets":{},"correct":true},{"rt":2080,"stimulus":"<p>How confident are you about your choice ?</p>","slider_start":50,"response":84,"trial_type":"html-slider-response","trial_index":5,"time_elapsed":12774,"internal_node_id":"0.0-3.0-2.0"},{"rt":null,"stimulus":"\n        <div id='jspsych-image' style='position: relative; width: min(80vw, 80vh); height: min(80vw, 80vh);'>\n                \n                <div style='position: absolute; top: 40%; left: 30%; bottom: 40%; right: 30%;'><h1 style='font-size: 60px; color: green;'>Correct!</h1></div>\n                \n                <div class='jspsych-image' id='jspsych-image-0' data-choice='0' style='top: 0;     left: 0;'><img style=\"width: 100%; height: 100%;\" src='../static/human_exp_images/practice_img/00_3.png' class='correct-choice'></img></div>\n                <div class='jspsych-image' id='jspsych-image-1' data-choice='1' style='top: 0;     right: 0;'><img style=\"width: 100%; height: 100%;\" src='../static/human_exp_images/practice_img/00_0.png' class=''></img></div>\n                <div class='jspsych-image' id='jspsych-image-2' data-choice='2' style='bottom: 0;  left: 0;'><img style=\"width: 100%; height: 100%;\" src='../static/human_exp_images/practice_img/00_1.png' class=''></img></div>\n                <div class='jspsych-image' id='jspsych-image-3' data-choice='3' style='bottom: 0;  right: 0;'><img style=\"width: 100%; height: 100%;\" src='../static/human_exp_images/practice_img/00_2.png' class=''></img></div>\n\n        </div>","response":null,"trial_type":"html-keyboard-response","trial_index":6,"time_elapsed":14279,"internal_node_id":"0.0-3.0-3.0"}]