[{"rt":957,"stimulus":"<p style='font-size: 40px'>Welcome to the experiment.</p><p style='font-size: 30px'>Press any key to begin.</p>","response":" ","trial_type":"html-keyboard-response","trial_index":0,"time_elapsed":960,"internal_node_id":"0.0-0.0"},{"rt":803,"stimulus":"\n    <p>This experiment aims to measure humans' visual reasoning skills. You will go through a practice session consisting of 3 trials, followed by 6 blocks of 21 trials.</p>\n    <p>When presented with an empty square in the middle of the screen, place your cursor on it to start the trial.</p>\n    <p>4 images will appear on the screen. 3 out of 4 images were generated with a certain rule while one image (the odd one out) does not respect this rule.</p>\n    <p>Select the odd one out by clicking on the image.</p>\n    <p>Following your choice, you will be asked to rate how confident you were about your choice on a scale from 0 to 100. Then, you will receive feedback on the trial.</p>\n    <p>The 21 trials of a block use the same rule and each block uses a different rule. At the end of each block, you will asked to describe the rule before starting a new block.</p>\n    <p>Please do not take breaks only in between blocks not in between trials.</p>\n    <p>The following 3 trials will allow you to get familiar with the odd-one-out task. The experiment starts after this practice session.</p>\n    \n    <p>Press any button to continue</p>\n    <div style='margin: auto; position: relative; width: 400px; height: 400px;'>\n        <div style='position: absolute; top: 0;     left: 0; '><img src='../static/img/square.png'></img></div>\n        <div style='position: absolute; top: 0;     right: 0;'><img src='../static/img/square.png'></img></div>\n        <div style='position: absolute; bottom: 0;  left: 0; '><img src='../static/img/square.png'></img></div>\n        <div style='position: absolute; bottom: 0;  right: 0;'><img src='../static/img/square.png'></img></div>\n    </div>\n","response":" ","trial_type":"html-keyboard-response","trial_index":1,"time_elapsed":1766,"internal_node_id":"0.0-1.0"},{"rt":1924,"response":{"Instruction Check":["The tasks consists of choosing one image that's different from the other three."]},"question_order":[0],"trial_type":"survey-multi-select","trial_index":2,"time_elapsed":5698,"internal_node_id":"0.0-2.0"},{"success":true,"timeout":false,"failed_images":[],"failed_audio":[],"failed_video":[],"trial_type":"preload","trial_index":3,"time_elapsed":5769,"internal_node_id":"0.0-3.0"},{"rt":null,"trial_type":"image-click","trial_index":4,"time_elapsed":6632,"internal_node_id":"0.0-4.0-0.0"},{"rt":1344,"response":0,"all_choices":["../static/human_exp_images/practice_img/00_3.png","../static/human_exp_images/practice_img/00_2.png","../static/human_exp_images/practice_img/00_0.png","../static/human_exp_images/practice_img/00_1.png"],"task":"response","correct_response":0,"shuffled_array":[3,2,0,1],"catch_trial":false,"trial_type":"image-click","trial_index":5,"time_elapsed":7980,"internal_node_id":"0.0-4.0-1.0","mouse_tracking_data":[{"x":992,"y":529,"t":0,"event":"mousemove"},{"x":992,"y":520,"t":12,"event":"mousemove"},{"x":992,"y":516,"t":28,"event":"mousemove"},{"x":992,"y":515,"t":46,"event":"mousemove"},{"x":992,"y":513,"t":970,"event":"mousemove"},{"x":992,"y":511,"t":988,"event":"mousemove"},{"x":992,"y":510,"t":999,"event":"mousemove"},{"x":992,"y":508,"t":1006,"event":"mousemove"},{"x":992,"y":503,"t":1015,"event":"mousemove"},{"x":992,"y":501,"t":1020,"event":"mousemove"},{"x":992,"y":496,"t":1023,"event":"mousemove"},{"x":992,"y":492,"t":1025,"event":"mousemove"},{"x":992,"y":483,"t":1032,"event":"mousemove"},{"x":987,"y":468,"t":1049,"event":"mousemove"},{"x":973,"y":446,"t":1067,"event":"mousemove"},{"x":954,"y":415,"t":1082,"event":"mousemove"},{"x":935,"y":392,"t":1099,"event":"mousemove"},{"x":911,"y":366,"t":1115,"event":"mousemove"},{"x":874,"y":325,"t":1133,"event":"mousemove"},{"x":857,"y":303,"t":1149,"event":"mousemove"},{"x":829,"y":277,"t":1167,"event":"mousemove"},{"x":808,"y":261,"t":1183,"event":"mousemove"},{"x":791,"y":251,"t":1199,"event":"mousemove"},{"x":772,"y":241,"t":1216,"event":"mousemove"},{"x":767,"y":238,"t":1232,"event":"mousemove"},{"x":755,"y":233,"t":1250,"event":"mousemove"},{"x":750,"y":231,"t":1266,"event":"mousemove"},{"x":750,"y":230,"t":1283,"event":"mousemove"},{"x":748,"y":230,"t":1299,"event":"mousemove"}],"mouse_tracking_targets":{},"correct":true},{"rt":938,"stimulus":"<p>How confident are you about your choice ? (click on the bar)</p>","slider_start":50,"response":95,"trial_type":"html-slider-response","trial_index":6,"time_elapsed":8919,"internal_node_id":"0.0-4.0-2.0"},{"rt":null,"stimulus":"\n        <div id='jspsych-image' style='position: relative; width: min(80vw, 80vh); height: min(80vw, 80vh);'>\n                \n                <div style='position: absolute; top: 40%; left: 30%; bottom: 40%; right: 30%;'><h1 style='font-size: 60px; color: green;'>Correct!</h1></div>\n                \n                <div class='jspsych-image' id='jspsych-image-0' data-choice='0' style='top: 0;     left: 0;'><img style=\"width: 100%; height: 100%;\" src='../static/human_exp_images/practice_img/00_3.png' class='correct-choice'></img></div>\n                <div class='jspsych-image' id='jspsych-image-1' data-choice='1' style='top: 0;     right: 0;'><img style=\"width: 100%; height: 100%;\" src='../static/human_exp_images/practice_img/00_2.png' class=''></img></div>\n                <div class='jspsych-image' id='jspsych-image-2' data-choice='2' style='bottom: 0;  left: 0;'><img style=\"width: 100%; height: 100%;\" src='../static/human_exp_images/practice_img/00_0.png' class=''></img></div>\n                <div class='jspsych-image' id='jspsych-image-3' data-choice='3' style='bottom: 0;  right: 0;'><img style=\"width: 100%; height: 100%;\" src='../static/human_exp_images/practice_img/00_1.png' class=''></img></div>\n\n        </div>","response":null,"trial_type":"html-keyboard-response","trial_index":7,"time_elapsed":10424,"internal_node_id":"0.0-4.0-3.0"},{"rt":null,"trial_type":"image-click","trial_index":8,"time_elapsed":10427,"internal_node_id":"0.0-4.0-0.1"},{"rt":871,"response":1,"all_choices":["../static/human_exp_images/practice_img/01_0.png","../static/human_exp_images/practice_img/01_3.png","../static/human_exp_images/practice_img/01_1.png","../static/human_exp_images/practice_img/01_2.png"],"task":"response","correct_response":1,"shuffled_array":[0,3,1,2],"catch_trial":false,"trial_type":"image-click","trial_index":9,"time_elapsed":11300,"internal_node_id":"0.0-4.0-1.1","mouse_tracking_data":[{"x":1049,"y":486,"t":329,"event":"mousemove"},{"x":1048,"y":486,"t":337,"event":"mousemove"},{"x":1046,"y":486,"t":345,"event":"mousemove"},{"x":1044,"y":486,"t":355,"event":"mousemove"},{"x":1041,"y":486,"t":362,"event":"mousemove"},{"x":1036,"y":486,"t":378,"event":"mousemove"},{"x":1032,"y":486,"t":395,"event":"mousemove"},{"x":1031,"y":482,"t":412,"event":"mousemove"},{"x":1031,"y":481,"t":429,"event":"mousemove"},{"x":1031,"y":477,"t":445,"event":"mousemove"},{"x":1031,"y":474,"t":463,"event":"mousemove"},{"x":1031,"y":467,"t":478,"event":"mousemove"},{"x":1031,"y":465,"t":495,"event":"mousemove"},{"x":1032,"y":465,"t":598,"event":"mousemove"},{"x":1036,"y":464,"t":614,"event":"mousemove"},{"x":1041,"y":458,"t":631,"event":"mousemove"},{"x":1053,"y":447,"t":648,"event":"mousemove"},{"x":1066,"y":426,"t":665,"event":"mousemove"},{"x":1087,"y":401,"t":681,"event":"mousemove"},{"x":1105,"y":379,"t":698,"event":"mousemove"},{"x":1119,"y":360,"t":715,"event":"mousemove"},{"x":1134,"y":331,"t":732,"event":"mousemove"},{"x":1145,"y":305,"t":747,"event":"mousemove"},{"x":1151,"y":288,"t":764,"event":"mousemove"},{"x":1156,"y":283,"t":781,"event":"mousemove"},{"x":1156,"y":281,"t":798,"event":"mousemove"}],"mouse_tracking_targets":{},"correct":true},{"rt":689,"stimulus":"<p>How confident are you about your choice ? (click on the bar)</p>","slider_start":50,"response":97,"trial_type":"html-slider-response","trial_index":10,"time_elapsed":11989,"internal_node_id":"0.0-4.0-2.1"},{"rt":null,"stimulus":"\n        <div id='jspsych-image' style='position: relative; width: min(80vw, 80vh); height: min(80vw, 80vh);'>\n                \n                <div style='position: absolute; top: 40%; left: 30%; bottom: 40%; right: 30%;'><h1 style='font-size: 60px; color: green;'>Correct!</h1></div>\n                \n                <div class='jspsych-image' id='jspsych-image-0' data-choice='0' style='top: 0;     left: 0;'><img style=\"width: 100%; height: 100%;\" src='../static/human_exp_images/practice_img/01_0.png' class=''></img></div>\n                <div class='jspsych-image' id='jspsych-image-1' data-choice='1' style='top: 0;     right: 0;'><img style=\"width: 100%; height: 100%;\" src='../static/human_exp_images/practice_img/01_3.png' class='correct-choice'></img></div>\n                <div class='jspsych-image' id='jspsych-image-2' data-choice='2' style='bottom: 0;  left: 0;'><img style=\"width: 100%; height: 100%;\" src='../static/human_exp_images/practice_img/01_1.png' class=''></img></div>\n                <div class='jspsych-image' id='jspsych-image-3' data-choice='3' style='bottom: 0;  right: 0;'><img style=\"width: 100%; height: 100%;\" src='../static/human_exp_images/practice_img/01_2.png' class=''></img></div>\n\n        </div>","response":null,"trial_type":"html-keyboard-response","trial_index":11,"time_elapsed":13491,"internal_node_id":"0.0-4.0-3.1"},{"rt":null,"trial_type":"image-click","trial_index":12,"time_elapsed":13922,"internal_node_id":"0.0-4.0-0.2"},{"rt":855,"response":2,"all_choices":["../static/human_exp_images/practice_img/02_1.png","../static/human_exp_images/practice_img/02_2.png","../static/human_exp_images/practice_img/02_3.png","../static/human_exp_images/practice_img/02_0.png"],"task":"response","correct_response":2,"shuffled_array":[1,2,3,0],"catch_trial":false,"trial_type":"image-click","trial_index":13,"time_elapsed":14779,"internal_node_id":"0.0-4.0-1.2","mouse_tracking_data":[{"x":1038,"y":450,"t":0,"event":"mousemove"},{"x":1025,"y":448,"t":13,"event":"mousemove"},{"x":1018,"y":446,"t":29,"event":"mousemove"},{"x":1013,"y":446,"t":47,"event":"mousemove"},{"x":1012,"y":446,"t":72,"event":"mousemove"},{"x":1010,"y":446,"t":144,"event":"mousemove"},{"x":1008,"y":446,"t":162,"event":"mousemove"},{"x":1006,"y":446,"t":207,"event":"mousemove"},{"x":1005,"y":446,"t":245,"event":"mousemove"},{"x":1005,"y":444,"t":362,"event":"mousemove"},{"x":1003,"y":444,"t":597,"event":"mousemove"},{"x":1000,"y":444,"t":606,"event":"mousemove"},{"x":998,"y":444,"t":610,"event":"mousemove"},{"x":995,"y":444,"t":615,"event":"mousemove"},{"x":984,"y":451,"t":631,"event":"mousemove"},{"x":954,"y":484,"t":649,"event":"mousemove"},{"x":923,"y":525,"t":664,"event":"mousemove"},{"x":881,"y":566,"t":681,"event":"mousemove"},{"x":853,"y":594,"t":698,"event":"mousemove"},{"x":819,"y":632,"t":715,"event":"mousemove"},{"x":802,"y":654,"t":731,"event":"mousemove"},{"x":781,"y":681,"t":748,"event":"mousemove"},{"x":770,"y":694,"t":766,"event":"mousemove"},{"x":766,"y":699,"t":781,"event":"mousemove"}],"mouse_tracking_targets":{},"correct":true},{"rt":732,"stimulus":"<p>How confident are you about your choice ? (click on the bar)</p>","slider_start":50,"response":95,"trial_type":"html-slider-response","trial_index":14,"time_elapsed":15512,"internal_node_id":"0.0-4.0-2.2"},{"rt":null,"stimulus":"\n        <div id='jspsych-image' style='position: relative; width: min(80vw, 80vh); height: min(80vw, 80vh);'>\n                \n                <div style='position: absolute; top: 40%; left: 30%; bottom: 40%; right: 30%;'><h1 style='font-size: 60px; color: green;'>Correct!</h1></div>\n                \n                <div class='jspsych-image' id='jspsych-image-0' data-choice='0' style='top: 0;     left: 0;'><img style=\"width: 100%; height: 100%;\" src='../static/human_exp_images/practice_img/02_1.png' class=''></img></div>\n                <div class='jspsych-image' id='jspsych-image-1' data-choice='1' style='top: 0;     right: 0;'><img style=\"width: 100%; height: 100%;\" src='../static/human_exp_images/practice_img/02_2.png' class=''></img></div>\n                <div class='jspsych-image' id='jspsych-image-2' data-choice='2' style='bottom: 0;  left: 0;'><img style=\"width: 100%; height: 100%;\" src='../static/human_exp_images/practice_img/02_3.png' class='correct-choice'></img></div>\n                <div class='jspsych-image' id='jspsych-image-3' data-choice='3' style='bottom: 0;  right: 0;'><img style=\"width: 100%; height: 100%;\" src='../static/human_exp_images/practice_img/02_0.png' class=''></img></div>\n\n        </div>","response":null,"trial_type":"html-keyboard-response","trial_index":15,"time_elapsed":17014,"internal_node_id":"0.0-4.0-3.2"},{"rt":642,"stimulus":"<p style='font-size: 40px'>The practice session is over. The experiment begin now!</p> \n                <p>Please take pauses on only at the \"new rule\" pages.</p> \n                <p>Press any key to begin.</p>","response":" ","trial_type":"html-keyboard-response","trial_index":16,"time_elapsed":17662,"internal_node_id":"0.0-5.0"},{"success":true,"timeout":false,"failed_images":[],"failed_audio":[],"failed_video":[],"trial_type":"preload","trial_index":17,"time_elapsed":17709,"internal_node_id":"0.0-6.0"},{"rt":585,"stimulus":"<h1 style='font-size: 60px'>New Rule!</h1> <p>Press any key to begin.</p>","response":" ","trial_type":"html-keyboard-response","trial_index":18,"time_elapsed":18295,"internal_node_id":"0.0-7.0"},{"rt":null,"trial_type":"image-click","trial_index":19,"time_elapsed":18884,"internal_node_id":"0.0-8.0-0.0"},{"rt":8794,"response":2,"all_choices":["../static/human_exp_images/task_rot/00_0.png","../static/human_exp_images/task_rot/00_1.png","../static/human_exp_images/task_rot/00_3.png","../static/human_exp_images/task_rot/00_2.png"],"task":"response","correct_response":2,"shuffled_array":[0,1,3,2],"catch_trial":false,"trial_type":"image-click","trial_index":20,"time_elapsed":27680,"internal_node_id":"0.0-8.0-1.0","mouse_tracking_data":[{"x":960,"y":431,"t":1,"event":"mousemove"},{"x":851,"y":426,"t":13,"event":"mousemove"},{"x":762,"y":426,"t":30,"event":"mousemove"},{"x":729,"y":426,"t":46,"event":"mousemove"},{"x":720,"y":426,"t":64,"event":"mousemove"},{"x":717,"y":426,"t":79,"event":"mousemove"},{"x":718,"y":426,"t":208,"event":"mousemove"},{"x":722,"y":426,"t":217,"event":"mousemove"},{"x":725,"y":426,"t":229,"event":"mousemove"},{"x":727,"y":426,"t":246,"event":"mousemove"},{"x":729,"y":426,"t":326,"event":"mousemove"},{"x":730,"y":426,"t":1053,"event":"mousemove"},{"x":732,"y":426,"t":1061,"event":"mousemove"},{"x":734,"y":426,"t":1069,"event":"mousemove"},{"x":740,"y":426,"t":1086,"event":"mousemove"},{"x":747,"y":426,"t":1103,"event":"mousemove"},{"x":756,"y":426,"t":1120,"event":"mousemove"},{"x":761,"y":426,"t":1136,"event":"mousemove"},{"x":768,"y":426,"t":1152,"event":"mousemove"},{"x":775,"y":426,"t":1170,"event":"mousemove"},{"x":783,"y":426,"t":1187,"event":"mousemove"},{"x":790,"y":426,"t":1203,"event":"mousemove"},{"x":800,"y":426,"t":1220,"event":"mousemove"},{"x":810,"y":426,"t":1236,"event":"mousemove"},{"x":819,"y":426,"t":1253,"event":"mousemove"},{"x":829,"y":426,"t":1269,"event":"mousemove"},{"x":834,"y":426,"t":1286,"event":"mousemove"},{"x":836,"y":426,"t":1302,"event":"mousemove"},{"x":843,"y":426,"t":1319,"event":"mousemove"},{"x":841,"y":426,"t":8221,"event":"mousemove"},{"x":840,"y":426,"t":8233,"event":"mousemove"},{"x":838,"y":426,"t":8238,"event":"mousemove"},{"x":836,"y":430,"t":8248,"event":"mousemove"},{"x":835,"y":431,"t":8256,"event":"mousemove"},{"x":833,"y":433,"t":8265,"event":"mousemove"},{"x":831,"y":435,"t":8268,"event":"mousemove"},{"x":829,"y":437,"t":8280,"event":"mousemove"},{"x":828,"y":438,"t":8283,"event":"mousemove"},{"x":824,"y":443,"t":8297,"event":"mousemove"},{"x":821,"y":448,"t":8314,"event":"mousemove"},{"x":817,"y":452,"t":8330,"event":"mousemove"},{"x":814,"y":459,"t":8347,"event":"mousemove"},{"x":811,"y":464,"t":8363,"event":"mousemove"},{"x":805,"y":469,"t":8381,"event":"mousemove"},{"x":804,"y":472,"t":8397,"event":"mousemove"},{"x":802,"y":474,"t":8413,"event":"mousemove"},{"x":802,"y":476,"t":8430,"event":"mousemove"},{"x":799,"y":481,"t":8447,"event":"mousemove"},{"x":797,"y":486,"t":8464,"event":"mousemove"},{"x":794,"y":491,"t":8480,"event":"mousemove"},{"x":792,"y":495,"t":8497,"event":"mousemove"},{"x":792,"y":496,"t":8514,"event":"mousemove"},{"x":790,"y":500,"t":8531,"event":"mousemove"},{"x":785,"y":508,"t":8546,"event":"mousemove"},{"x":782,"y":513,"t":8563,"event":"mousemove"},{"x":775,"y":527,"t":8580,"event":"mousemove"},{"x":770,"y":537,"t":8597,"event":"mousemove"},{"x":770,"y":544,"t":8613,"event":"mousemove"},{"x":766,"y":551,"t":8630,"event":"mousemove"},{"x":766,"y":554,"t":8647,"event":"mousemove"},{"x":766,"y":556,"t":8664,"event":"mousemove"},{"x":764,"y":558,"t":8681,"event":"mousemove"},{"x":764,"y":560,"t":8703,"event":"mousemove"},{"x":763,"y":561,"t":8709,"event":"mousemove"},{"x":763,"y":565,"t":8725,"event":"mousemove"},{"x":761,"y":570,"t":8743,"event":"mousemove"},{"x":761,"y":572,"t":8759,"event":"mousemove"},{"x":759,"y":572,"t":8777,"event":"mousemove"}],"mouse_tracking_targets":{},"correct":true},{"rt":1763,"stimulus":"<p>How confident are you about your choice ? (click on the bar)</p>","slider_start":50,"response":93,"trial_type":"html-slider-response","trial_index":21,"time_elapsed":29445,"internal_node_id":"0.0-8.0-2.0"},{"rt":null,"stimulus":"\n        <div id='jspsych-image' style='position: relative; width: min(80vw, 80vh); height: min(80vw, 80vh);'>\n                \n                <div style='position: absolute; top: 40%; left: 30%; bottom: 40%; right: 30%;'><h1 style='font-size: 60px; color: green;'>Correct!</h1></div>\n                \n                <div class='jspsych-image' id='jspsych-image-0' data-choice='0' style='top: 0;     left: 0;'><img style=\"width: 100%; height: 100%;\" src='../static/human_exp_images/task_rot/00_0.png' class=''></img></div>\n                <div class='jspsych-image' id='jspsych-image-1' data-choice='1' style='top: 0;     right: 0;'><img style=\"width: 100%; height: 100%;\" src='../static/human_exp_images/task_rot/00_1.png' class=''></img></div>\n                <div class='jspsych-image' id='jspsych-image-2' data-choice='2' style='bottom: 0;  left: 0;'><img style=\"width: 100%; height: 100%;\" src='../static/human_exp_images/task_rot/00_3.png' class='correct-choice'></img></div>\n                <div class='jspsych-image' id='jspsych-image-3' data-choice='3' style='bottom: 0;  right: 0;'><img style=\"width: 100%; height: 100%;\" src='../static/human_exp_images/task_rot/00_2.png' class=''></img></div>\n\n        </div>","response":null,"trial_type":"html-keyboard-response","trial_index":22,"time_elapsed":30948,"internal_node_id":"0.0-8.0-3.0"},{"rt":null,"trial_type":"image-click","trial_index":23,"time_elapsed":31541,"internal_node_id":"0.0-8.0-0.1"},{"rt":4412,"response":3,"all_choices":["../static/human_exp_images/task_rot/01_2.png","../static/human_exp_images/task_rot/01_1.png","../static/human_exp_images/task_rot/01_0.png","../static/human_exp_images/task_rot/01_3.png"],"task":"response","correct_response":3,"shuffled_array":[2,1,0,3],"catch_trial":false,"trial_type":"image-click","trial_index":24,"time_elapsed":35955,"internal_node_id":"0.0-8.0-1.1","mouse_tracking_data":[{"x":1045,"y":472,"t":1,"event":"mousemove"},{"x":1013,"y":469,"t":13,"event":"mousemove"},{"x":995,"y":467,"t":30,"event":"mousemove"},{"x":985,"y":467,"t":47,"event":"mousemove"},{"x":982,"y":467,"t":64,"event":"mousemove"},{"x":978,"y":467,"t":80,"event":"mousemove"},{"x":977,"y":467,"t":97,"event":"mousemove"},{"x":975,"y":467,"t":137,"event":"mousemove"},{"x":975,"y":466,"t":202,"event":"mousemove"},{"x":975,"y":467,"t":3455,"event":"mousemove"},{"x":975,"y":469,"t":4011,"event":"mousemove"},{"x":975,"y":470,"t":4019,"event":"mousemove"},{"x":975,"y":472,"t":4028,"event":"mousemove"},{"x":975,"y":479,"t":4045,"event":"mousemove"},{"x":975,"y":489,"t":4062,"event":"mousemove"},{"x":975,"y":507,"t":4078,"event":"mousemove"},{"x":975,"y":528,"t":4095,"event":"mousemove"},{"x":975,"y":549,"t":4112,"event":"mousemove"},{"x":986,"y":563,"t":4129,"event":"mousemove"},{"x":1000,"y":578,"t":4145,"event":"mousemove"},{"x":1031,"y":600,"t":4162,"event":"mousemove"},{"x":1061,"y":623,"t":4178,"event":"mousemove"},{"x":1083,"y":639,"t":4196,"event":"mousemove"},{"x":1103,"y":655,"t":4212,"event":"mousemove"},{"x":1122,"y":665,"t":4228,"event":"mousemove"},{"x":1135,"y":674,"t":4246,"event":"mousemove"},{"x":1140,"y":679,"t":4262,"event":"mousemove"},{"x":1145,"y":684,"t":4280,"event":"mousemove"},{"x":1147,"y":686,"t":4296,"event":"mousemove"},{"x":1148,"y":686,"t":4312,"event":"mousemove"}],"mouse_tracking_targets":{},"correct":true},{"rt":1085,"stimulus":"<p>How confident are you about your choice ? (click on the bar)</p>","slider_start":50,"response":99,"trial_type":"html-slider-response","trial_index":25,"time_elapsed":37041,"internal_node_id":"0.0-8.0-2.1"},{"rt":null,"stimulus":"\n        <div id='jspsych-image' style='position: relative; width: min(80vw, 80vh); height: min(80vw, 80vh);'>\n                \n                <div style='position: absolute; top: 40%; left: 30%; bottom: 40%; right: 30%;'><h1 style='font-size: 60px; color: green;'>Correct!</h1></div>\n                \n                <div class='jspsych-image' id='jspsych-image-0' data-choice='0' style='top: 0;     left: 0;'><img style=\"width: 100%; height: 100%;\" src='../static/human_exp_images/task_rot/01_2.png' class=''></img></div>\n                <div class='jspsych-image' id='jspsych-image-1' data-choice='1' style='top: 0;     right: 0;'><img style=\"width: 100%; height: 100%;\" src='../static/human_exp_images/task_rot/01_1.png' class=''></img></div>\n                <div class='jspsych-image' id='jspsych-image-2' data-choice='2' style='bottom: 0;  left: 0;'><img style=\"width: 100%; height: 100%;\" src='../static/human_exp_images/task_rot/01_0.png' class=''></img></div>\n                <div class='jspsych-image' id='jspsych-image-3' data-choice='3' style='bottom: 0;  right: 0;'><img style=\"width: 100%; height: 100%;\" src='../static/human_exp_images/task_rot/01_3.png' class='correct-choice'></img></div>\n\n        </div>","response":null,"trial_type":"html-keyboard-response","trial_index":26,"time_elapsed":38543,"internal_node_id":"0.0-8.0-3.1"},{"rt":null,"trial_type":"image-click","trial_index":27,"time_elapsed":39237,"internal_node_id":"0.0-8.0-0.2"},{"rt":1312,"response":1,"all_choices":["../static/human_exp_images/task_rot/02_0.png","../static/human_exp_images/task_rot/02_3.png","../static/human_exp_images/task_rot/02_2.png","../static/human_exp_images/task_rot/02_1.png"],"task":"response","correct_response":1,"shuffled_array":[0,3,2,1],"catch_trial":false,"trial_type":"image-click","trial_index":28,"time_elapsed":40552,"internal_node_id":"0.0-8.0-1.2","mouse_tracking_data":[{"x":1048,"y":408,"t":1,"event":"mousemove"},{"x":992,"y":401,"t":15,"event":"mousemove"},{"x":954,"y":401,"t":31,"event":"mousemove"},{"x":913,"y":401,"t":48,"event":"mousemove"},{"x":886,"y":401,"t":64,"event":"mousemove"},{"x":845,"y":401,"t":81,"event":"mousemove"},{"x":810,"y":404,"t":98,"event":"mousemove"},{"x":794,"y":408,"t":114,"event":"mousemove"},{"x":785,"y":410,"t":131,"event":"mousemove"},{"x":785,"y":411,"t":168,"event":"mousemove"},{"x":785,"y":413,"t":187,"event":"mousemove"},{"x":785,"y":415,"t":198,"event":"mousemove"},{"x":785,"y":418,"t":215,"event":"mousemove"},{"x":789,"y":422,"t":231,"event":"mousemove"},{"x":799,"y":427,"t":248,"event":"mousemove"},{"x":806,"y":429,"t":264,"event":"mousemove"},{"x":813,"y":429,"t":282,"event":"mousemove"},{"x":818,"y":429,"t":298,"event":"mousemove"},{"x":830,"y":432,"t":315,"event":"mousemove"},{"x":835,"y":434,"t":331,"event":"mousemove"},{"x":845,"y":435,"t":349,"event":"mousemove"},{"x":854,"y":437,"t":365,"event":"mousemove"},{"x":864,"y":439,"t":381,"event":"mousemove"},{"x":871,"y":439,"t":399,"event":"mousemove"},{"x":885,"y":439,"t":415,"event":"mousemove"},{"x":895,"y":439,"t":432,"event":"mousemove"},{"x":910,"y":439,"t":448,"event":"mousemove"},{"x":924,"y":439,"t":465,"event":"mousemove"},{"x":935,"y":439,"t":482,"event":"mousemove"},{"x":943,"y":437,"t":499,"event":"mousemove"},{"x":950,"y":435,"t":514,"event":"mousemove"},{"x":959,"y":434,"t":532,"event":"mousemove"},{"x":965,"y":432,"t":548,"event":"mousemove"},{"x":974,"y":429,"t":565,"event":"mousemove"},{"x":979,"y":427,"t":581,"event":"mousemove"},{"x":988,"y":423,"t":598,"event":"mousemove"},{"x":995,"y":420,"t":615,"event":"mousemove"},{"x":1010,"y":415,"t":632,"event":"mousemove"},{"x":1031,"y":402,"t":648,"event":"mousemove"},{"x":1053,"y":390,"t":664,"event":"mousemove"},{"x":1074,"y":370,"t":682,"event":"mousemove"},{"x":1092,"y":355,"t":698,"event":"mousemove"},{"x":1110,"y":336,"t":715,"event":"mousemove"},{"x":1126,"y":319,"t":731,"event":"mousemove"},{"x":1137,"y":307,"t":748,"event":"mousemove"},{"x":1148,"y":294,"t":766,"event":"mousemove"},{"x":1161,"y":282,"t":782,"event":"mousemove"},{"x":1176,"y":271,"t":799,"event":"mousemove"},{"x":1201,"y":252,"t":815,"event":"mousemove"},{"x":1221,"y":238,"t":832,"event":"mousemove"},{"x":1235,"y":230,"t":848,"event":"mousemove"},{"x":1233,"y":230,"t":1003,"event":"mousemove"},{"x":1232,"y":230,"t":1011,"event":"mousemove"},{"x":1228,"y":230,"t":1020,"event":"mousemove"}],"mouse_tracking_targets":{},"correct":true},{"rt":3099,"stimulus":"<p>How confident are you about your choice ? (click on the bar)</p>","slider_start":50,"response":100,"trial_type":"html-slider-response","trial_index":29,"time_elapsed":43653,"internal_node_id":"0.0-8.0-2.2"},{"rt":null,"stimulus":"\n        <div id='jspsych-image' style='position: relative; width: min(80vw, 80vh); height: min(80vw, 80vh);'>\n                \n                <div style='position: absolute; top: 40%; left: 30%; bottom: 40%; right: 30%;'><h1 style='font-size: 60px; color: green;'>Correct!</h1></div>\n                \n                <div class='jspsych-image' id='jspsych-image-0' data-choice='0' style='top: 0;     left: 0;'><img style=\"width: 100%; height: 100%;\" src='../static/human_exp_images/task_rot/02_0.png' class=''></img></div>\n                <div class='jspsych-image' id='jspsych-image-1' data-choice='1' style='top: 0;     right: 0;'><img style=\"width: 100%; height: 100%;\" src='../static/human_exp_images/task_rot/02_3.png' class='correct-choice'></img></div>\n                <div class='jspsych-image' id='jspsych-image-2' data-choice='2' style='bottom: 0;  left: 0;'><img style=\"width: 100%; height: 100%;\" src='../static/human_exp_images/task_rot/02_2.png' class=''></img></div>\n                <div class='jspsych-image' id='jspsych-image-3' data-choice='3' style='bottom: 0;  right: 0;'><img style=\"width: 100%; height: 100%;\" src='../static/human_exp_images/task_rot/02_1.png' class=''></img></div>\n\n        </div>","response":null,"trial_type":"html-keyboard-response","trial_index":30,"time_elapsed":45156,"internal_node_id":"0.0-8.0-3.2"},{"rt":4734,"response":{"Q0":"54\n"},"trial_type":"survey-text","trial_index":31,"time_elapsed":49898,"internal_node_id":"0.0-9.0"},{"rt":null,"stimulus":"<h1 style='font-size: 60px'>Block End</h1>","response":null,"trial_type":"html-keyboard-response","trial_index":32,"time_elapsed":50403,"internal_node_id":"0.0-10.0"},{"success":true,"timeout":false,"failed_images":[],"failed_audio":[],"failed_video":[],"trial_type":"preload","trial_index":33,"time_elapsed":50483,"internal_node_id":"0.0-11.0"},{"rt":1581,"stimulus":"<h1 style='font-size: 60px'>New Rule!</h1> <p>Press any key to begin.</p>","response":" ","trial_type":"html-keyboard-response","trial_index":34,"time_elapsed":52066,"internal_node_id":"0.0-12.0"},{"rt":null,"trial_type":"image-click","trial_index":35,"time_elapsed":52070,"internal_node_id":"0.0-13.0-0.0"},{"rt":6287,"response":3,"all_choices":["../static/human_exp_images/task_flip/00_1.png","../static/human_exp_images/task_flip/00_2.png","../static/human_exp_images/task_flip/00_0.png","../static/human_exp_images/task_flip/00_3.png"],"task":"response","correct_response":3,"shuffled_array":[1,2,0,3],"catch_trial":false,"trial_type":"image-click","trial_index":36,"time_elapsed":58360,"internal_node_id":"0.0-13.0-1.0","mouse_tracking_data":[{"x":1010,"y":500,"t":446,"event":"mousemove"},{"x":1010,"y":502,"t":463,"event":"mousemove"},{"x":1010,"y":503,"t":571,"event":"mousemove"},{"x":1010,"y":505,"t":1318,"event":"mousemove"},{"x":1010,"y":507,"t":1328,"event":"mousemove"},{"x":1012,"y":507,"t":1333,"event":"mousemove"},{"x":1014,"y":508,"t":1342,"event":"mousemove"},{"x":1015,"y":510,"t":1351,"event":"mousemove"},{"x":1017,"y":512,"t":1360,"event":"mousemove"},{"x":1019,"y":512,"t":1370,"event":"mousemove"},{"x":1020,"y":513,"t":1386,"event":"mousemove"},{"x":1020,"y":515,"t":1403,"event":"mousemove"},{"x":1022,"y":517,"t":1420,"event":"mousemove"},{"x":1024,"y":519,"t":1436,"event":"mousemove"},{"x":1027,"y":522,"t":1452,"event":"mousemove"},{"x":1029,"y":524,"t":1470,"event":"mousemove"},{"x":1031,"y":527,"t":1487,"event":"mousemove"},{"x":1032,"y":527,"t":1503,"event":"mousemove"},{"x":1032,"y":529,"t":1520,"event":"mousemove"},{"x":1034,"y":530,"t":1536,"event":"mousemove"},{"x":1036,"y":530,"t":1553,"event":"mousemove"},{"x":1036,"y":532,"t":1596,"event":"mousemove"},{"x":1036,"y":534,"t":3505,"event":"mousemove"},{"x":1036,"y":535,"t":3577,"event":"mousemove"},{"x":1036,"y":537,"t":3632,"event":"mousemove"},{"x":1037,"y":537,"t":3659,"event":"mousemove"},{"x":1037,"y":539,"t":3676,"event":"mousemove"},{"x":1039,"y":539,"t":3703,"event":"mousemove"},{"x":1039,"y":541,"t":3713,"event":"mousemove"},{"x":1041,"y":541,"t":3740,"event":"mousemove"},{"x":1041,"y":542,"t":3748,"event":"mousemove"},{"x":1043,"y":542,"t":3766,"event":"mousemove"},{"x":1043,"y":544,"t":3785,"event":"mousemove"},{"x":1043,"y":546,"t":3821,"event":"mousemove"},{"x":1044,"y":546,"t":3832,"event":"mousemove"},{"x":1046,"y":547,"t":3849,"event":"mousemove"},{"x":1046,"y":549,"t":3901,"event":"mousemove"},{"x":1046,"y":551,"t":3922,"event":"mousemove"},{"x":1048,"y":552,"t":3958,"event":"mousemove"},{"x":1049,"y":552,"t":4012,"event":"mousemove"},{"x":1049,"y":554,"t":4031,"event":"mousemove"},{"x":1049,"y":556,"t":4095,"event":"mousemove"},{"x":1051,"y":556,"t":4113,"event":"mousemove"},{"x":1051,"y":558,"t":4241,"event":"mousemove"},{"x":1051,"y":559,"t":4423,"event":"mousemove"},{"x":1051,"y":561,"t":4532,"event":"mousemove"},{"x":1053,"y":561,"t":4714,"event":"mousemove"},{"x":1053,"y":563,"t":4915,"event":"mousemove"},{"x":1055,"y":563,"t":5016,"event":"mousemove"},{"x":1056,"y":563,"t":5198,"event":"mousemove"},{"x":1058,"y":563,"t":5728,"event":"mousemove"},{"x":1059,"y":564,"t":5737,"event":"mousemove"},{"x":1061,"y":568,"t":5745,"event":"mousemove"},{"x":1063,"y":570,"t":5748,"event":"mousemove"},{"x":1065,"y":571,"t":5754,"event":"mousemove"},{"x":1066,"y":573,"t":5757,"event":"mousemove"},{"x":1071,"y":583,"t":5774,"event":"mousemove"},{"x":1075,"y":588,"t":5791,"event":"mousemove"},{"x":1077,"y":590,"t":5808,"event":"mousemove"},{"x":1080,"y":595,"t":5824,"event":"mousemove"},{"x":1082,"y":595,"t":5840,"event":"mousemove"},{"x":1082,"y":597,"t":5857,"event":"mousemove"},{"x":1083,"y":599,"t":5875,"event":"mousemove"},{"x":1085,"y":599,"t":5891,"event":"mousemove"},{"x":1087,"y":599,"t":5928,"event":"mousemove"},{"x":1090,"y":600,"t":5940,"event":"mousemove"},{"x":1094,"y":602,"t":5958,"event":"mousemove"},{"x":1095,"y":604,"t":5974,"event":"mousemove"},{"x":1097,"y":605,"t":5991,"event":"mousemove"},{"x":1099,"y":605,"t":6009,"event":"mousemove"},{"x":1100,"y":605,"t":6037,"event":"mousemove"}],"mouse_tracking_targets":{},"correct":true},{"rt":1696,"stimulus":"<p>How confident are you about your choice ? (click on the bar)</p>","slider_start":50,"response":94,"trial_type":"html-slider-response","trial_index":37,"time_elapsed":60058,"internal_node_id":"0.0-13.0-2.0"},{"rt":null,"stimulus":"\n        <div id='jspsych-image' style='position: relative; width: min(80vw, 80vh); height: min(80vw, 80vh);'>\n                \n                <div style='position: absolute; top: 40%; left: 30%; bottom: 40%; right: 30%;'><h1 style='font-size: 60px; color: green;'>Correct!</h1></div>\n                \n                <div class='jspsych-image' id='jspsych-image-0' data-choice='0' style='top: 0;     left: 0;'><img style=\"width: 100%; height: 100%;\" src='../static/human_exp_images/task_flip/00_1.png' class=''></img></div>\n                <div class='jspsych-image' id='jspsych-image-1' data-choice='1' style='top: 0;     right: 0;'><img style=\"width: 100%; height: 100%;\" src='../static/human_exp_images/task_flip/00_2.png' class=''></img></div>\n                <div class='jspsych-image' id='jspsych-image-2' data-choice='2' style='bottom: 0;  left: 0;'><img style=\"width: 100%; height: 100%;\" src='../static/human_exp_images/task_flip/00_0.png' class=''></img></div>\n                <div class='jspsych-image' id='jspsych-image-3' data-choice='3' style='bottom: 0;  right: 0;'><img style=\"width: 100%; height: 100%;\" src='../static/human_exp_images/task_flip/00_3.png' class='correct-choice'></img></div>\n\n        </div>","response":null,"trial_type":"html-keyboard-response","trial_index":38,"time_elapsed":61565,"internal_node_id":"0.0-13.0-3.0"},{"rt":null,"trial_type":"image-click","trial_index":39,"time_elapsed":62684,"internal_node_id":"0.0-13.0-0.1"},{"rt":3001,"response":0,"all_choices":["../static/human_exp_images/task_flip/01_1.png","../static/human_exp_images/task_flip/01_3.png","../static/human_exp_images/task_flip/01_2.png","../static/human_exp_images/task_flip/01_0.png"],"task":"response","correct_response":1,"shuffled_array":[1,3,2,0],"catch_trial":false,"trial_type":"image-click","trial_index":40,"time_elapsed":65688,"internal_node_id":"0.0-13.0-1.1","mouse_tracking_data":[{"x":1045,"y":469,"t":1,"event":"mousemove"},{"x":1031,"y":464,"t":12,"event":"mousemove"},{"x":1022,"y":460,"t":30,"event":"mousemove"},{"x":1013,"y":458,"t":46,"event":"mousemove"},{"x":1010,"y":458,"t":62,"event":"mousemove"},{"x":1005,"y":458,"t":80,"event":"mousemove"},{"x":1001,"y":458,"t":96,"event":"mousemove"},{"x":1000,"y":457,"t":113,"event":"mousemove"},{"x":998,"y":457,"t":129,"event":"mousemove"},{"x":996,"y":457,"t":146,"event":"mousemove"},{"x":995,"y":457,"t":163,"event":"mousemove"},{"x":993,"y":457,"t":201,"event":"mousemove"},{"x":993,"y":455,"t":338,"event":"mousemove"},{"x":993,"y":454,"t":885,"event":"mousemove"},{"x":993,"y":452,"t":913,"event":"mousemove"},{"x":991,"y":452,"t":931,"event":"mousemove"},{"x":991,"y":450,"t":995,"event":"mousemove"},{"x":991,"y":448,"t":1077,"event":"mousemove"},{"x":991,"y":447,"t":1242,"event":"mousemove"},{"x":989,"y":447,"t":1314,"event":"mousemove"},{"x":989,"y":445,"t":1323,"event":"mousemove"},{"x":988,"y":445,"t":1370,"event":"mousemove"},{"x":988,"y":443,"t":1424,"event":"mousemove"},{"x":986,"y":443,"t":1442,"event":"mousemove"},{"x":986,"y":442,"t":1451,"event":"mousemove"},{"x":986,"y":440,"t":1551,"event":"mousemove"},{"x":984,"y":440,"t":1560,"event":"mousemove"},{"x":983,"y":440,"t":1616,"event":"mousemove"},{"x":983,"y":438,"t":1652,"event":"mousemove"},{"x":981,"y":438,"t":1656,"event":"mousemove"},{"x":981,"y":437,"t":1660,"event":"mousemove"},{"x":974,"y":433,"t":1676,"event":"mousemove"},{"x":965,"y":428,"t":1694,"event":"mousemove"},{"x":962,"y":423,"t":1709,"event":"mousemove"},{"x":959,"y":423,"t":1726,"event":"mousemove"},{"x":957,"y":421,"t":1743,"event":"mousemove"},{"x":955,"y":419,"t":1760,"event":"mousemove"},{"x":954,"y":419,"t":1779,"event":"mousemove"},{"x":952,"y":419,"t":1796,"event":"mousemove"},{"x":950,"y":419,"t":1869,"event":"mousemove"},{"x":950,"y":418,"t":2181,"event":"mousemove"},{"x":950,"y":416,"t":2674,"event":"mousemove"},{"x":950,"y":415,"t":2691,"event":"mousemove"},{"x":950,"y":413,"t":2720,"event":"mousemove"},{"x":950,"y":411,"t":2728,"event":"mousemove"},{"x":950,"y":404,"t":2744,"event":"mousemove"},{"x":948,"y":387,"t":2761,"event":"mousemove"},{"x":938,"y":369,"t":2778,"event":"mousemove"},{"x":928,"y":353,"t":2795,"event":"mousemove"},{"x":919,"y":344,"t":2810,"event":"mousemove"},{"x":909,"y":337,"t":2828,"event":"mousemove"},{"x":902,"y":334,"t":2844,"event":"mousemove"},{"x":892,"y":329,"t":2861,"event":"mousemove"},{"x":881,"y":324,"t":2878,"event":"mousemove"},{"x":873,"y":319,"t":2894,"event":"mousemove"},{"x":863,"y":312,"t":2911,"event":"mousemove"},{"x":857,"y":308,"t":2928,"event":"mousemove"},{"x":856,"y":305,"t":2944,"event":"mousemove"},{"x":854,"y":303,"t":2962,"event":"mousemove"},{"x":852,"y":303,"t":2993,"event":"mousemove"}],"mouse_tracking_targets":{},"correct":false},{"rt":2367,"stimulus":"<p>How confident are you about your choice ? (click on the bar)</p>","slider_start":50,"response":51,"trial_type":"html-slider-response","trial_index":41,"time_elapsed":68055,"internal_node_id":"0.0-13.0-2.1"},{"rt":null,"stimulus":"\n        <div id='jspsych-image' style='position: relative; width: min(80vw, 80vh); height: min(80vw, 80vh);'>\n                \n                <div style='position: absolute; top: 40%; left: 30%; bottom: 40%; right: 30%;'><h1 style='font-size: 60px; color: red'>Wrong</h1></div>\n                \n                <div class='jspsych-image' id='jspsych-image-0' data-choice='0' style='top: 0;     left: 0;'><img style=\"width: 100%; height: 100%;\" src='../static/human_exp_images/task_flip/01_1.png' class='wrong-choice'></img></div>\n                <div class='jspsych-image' id='jspsych-image-1' data-choice='1' style='top: 0;     right: 0;'><img style=\"width: 100%; height: 100%;\" src='../static/human_exp_images/task_flip/01_3.png' class='correct-choice'></img></div>\n                <div class='jspsych-image' id='jspsych-image-2' data-choice='2' style='bottom: 0;  left: 0;'><img style=\"width: 100%; height: 100%;\" src='../static/human_exp_images/task_flip/01_2.png' class=''></img></div>\n                <div class='jspsych-image' id='jspsych-image-3' data-choice='3' style='bottom: 0;  right: 0;'><img style=\"width: 100%; height: 100%;\" src='../static/human_exp_images/task_flip/01_0.png' class=''></img></div>\n\n        </div>","response":null,"trial_type":"html-keyboard-response","trial_index":42,"time_elapsed":70558,"internal_node_id":"0.0-13.0-3.1"},{"rt":null,"trial_type":"image-click","trial_index":43,"time_elapsed":71242,"internal_node_id":"0.0-13.0-0.2"},{"rt":5793,"response":0,"all_choices":["../static/human_exp_images/task_flip/02_3.png","../static/human_exp_images/task_flip/02_1.png","../static/human_exp_images/task_flip/02_0.png","../static/human_exp_images/task_flip/02_2.png"],"task":"response","correct_response":0,"shuffled_array":[3,1,0,2],"catch_trial":false,"trial_type":"image-click","trial_index":44,"time_elapsed":77037,"internal_node_id":"0.0-13.0-1.2","mouse_tracking_data":[{"x":993,"y":532,"t":1,"event":"mousemove"},{"x":993,"y":523,"t":14,"event":"mousemove"},{"x":993,"y":518,"t":30,"event":"mousemove"},{"x":993,"y":516,"t":47,"event":"mousemove"},{"x":993,"y":514,"t":63,"event":"mousemove"},{"x":993,"y":513,"t":80,"event":"mousemove"},{"x":993,"y":511,"t":98,"event":"mousemove"},{"x":993,"y":509,"t":121,"event":"mousemove"},{"x":994,"y":509,"t":3938,"event":"mousemove"},{"x":996,"y":509,"t":3945,"event":"mousemove"},{"x":998,"y":509,"t":3953,"event":"mousemove"},{"x":1000,"y":509,"t":3962,"event":"mousemove"},{"x":1001,"y":509,"t":3978,"event":"mousemove"},{"x":1005,"y":509,"t":3995,"event":"mousemove"},{"x":1005,"y":511,"t":4124,"event":"mousemove"},{"x":1000,"y":516,"t":4140,"event":"mousemove"},{"x":998,"y":518,"t":4158,"event":"mousemove"},{"x":993,"y":521,"t":4174,"event":"mousemove"},{"x":991,"y":521,"t":4191,"event":"mousemove"},{"x":989,"y":521,"t":4252,"event":"mousemove"},{"x":988,"y":521,"t":4462,"event":"mousemove"},{"x":988,"y":520,"t":4616,"event":"mousemove"},{"x":988,"y":514,"t":4633,"event":"mousemove"},{"x":991,"y":506,"t":4650,"event":"mousemove"},{"x":1000,"y":496,"t":4666,"event":"mousemove"},{"x":1008,"y":485,"t":4684,"event":"mousemove"},{"x":1015,"y":477,"t":4700,"event":"mousemove"},{"x":1020,"y":472,"t":4716,"event":"mousemove"},{"x":1023,"y":467,"t":4732,"event":"mousemove"},{"x":1027,"y":462,"t":4750,"event":"mousemove"},{"x":1032,"y":456,"t":4766,"event":"mousemove"},{"x":1034,"y":455,"t":4790,"event":"mousemove"},{"x":1035,"y":453,"t":4807,"event":"mousemove"},{"x":1035,"y":451,"t":4827,"event":"mousemove"},{"x":1035,"y":450,"t":4899,"event":"mousemove"},{"x":1035,"y":448,"t":4943,"event":"mousemove"},{"x":1037,"y":446,"t":4963,"event":"mousemove"},{"x":1039,"y":444,"t":4973,"event":"mousemove"},{"x":1041,"y":443,"t":4982,"event":"mousemove"},{"x":1044,"y":438,"t":4998,"event":"mousemove"},{"x":1047,"y":433,"t":5015,"event":"mousemove"},{"x":1049,"y":431,"t":5031,"event":"mousemove"},{"x":1049,"y":429,"t":5048,"event":"mousemove"},{"x":1049,"y":427,"t":5064,"event":"mousemove"},{"x":1049,"y":426,"t":5091,"event":"mousemove"},{"x":1051,"y":426,"t":5117,"event":"mousemove"},{"x":1051,"y":424,"t":5235,"event":"mousemove"},{"x":1051,"y":422,"t":5271,"event":"mousemove"},{"x":1051,"y":421,"t":5298,"event":"mousemove"},{"x":1051,"y":419,"t":5307,"event":"mousemove"},{"x":1051,"y":415,"t":5315,"event":"mousemove"},{"x":1051,"y":409,"t":5332,"event":"mousemove"},{"x":1051,"y":397,"t":5349,"event":"mousemove"},{"x":1039,"y":386,"t":5365,"event":"mousemove"},{"x":1025,"y":378,"t":5382,"event":"mousemove"},{"x":1010,"y":369,"t":5400,"event":"mousemove"},{"x":1003,"y":366,"t":5416,"event":"mousemove"},{"x":988,"y":361,"t":5433,"event":"mousemove"},{"x":972,"y":356,"t":5449,"event":"mousemove"},{"x":955,"y":351,"t":5466,"event":"mousemove"},{"x":938,"y":347,"t":5482,"event":"mousemove"},{"x":928,"y":345,"t":5499,"event":"mousemove"},{"x":914,"y":345,"t":5517,"event":"mousemove"},{"x":902,"y":344,"t":5532,"event":"mousemove"},{"x":890,"y":342,"t":5549,"event":"mousemove"},{"x":882,"y":340,"t":5566,"event":"mousemove"},{"x":871,"y":339,"t":5583,"event":"mousemove"},{"x":868,"y":339,"t":5599,"event":"mousemove"},{"x":858,"y":335,"t":5616,"event":"mousemove"},{"x":853,"y":333,"t":5632,"event":"mousemove"},{"x":848,"y":333,"t":5649,"event":"mousemove"},{"x":846,"y":332,"t":5667,"event":"mousemove"},{"x":842,"y":330,"t":5683,"event":"mousemove"},{"x":841,"y":330,"t":5699,"event":"mousemove"}],"mouse_tracking_targets":{},"correct":true},{"rt":877,"stimulus":"<p>How confident are you about your choice ? (click on the bar)</p>","slider_start":50,"response":81,"trial_type":"html-slider-response","trial_index":45,"time_elapsed":77917,"internal_node_id":"0.0-13.0-2.2"},{"rt":null,"stimulus":"\n        <div id='jspsych-image' style='position: relative; width: min(80vw, 80vh); height: min(80vw, 80vh);'>\n                \n                <div style='position: absolute; top: 40%; left: 30%; bottom: 40%; right: 30%;'><h1 style='font-size: 60px; color: green;'>Correct!</h1></div>\n                \n                <div class='jspsych-image' id='jspsych-image-0' data-choice='0' style='top: 0;     left: 0;'><img style=\"width: 100%; height: 100%;\" src='../static/human_exp_images/task_flip/02_3.png' class='correct-choice'></img></div>\n                <div class='jspsych-image' id='jspsych-image-1' data-choice='1' style='top: 0;     right: 0;'><img style=\"width: 100%; height: 100%;\" src='../static/human_exp_images/task_flip/02_1.png' class=''></img></div>\n                <div class='jspsych-image' id='jspsych-image-2' data-choice='2' style='bottom: 0;  left: 0;'><img style=\"width: 100%; height: 100%;\" src='../static/human_exp_images/task_flip/02_0.png' class=''></img></div>\n                <div class='jspsych-image' id='jspsych-image-3' data-choice='3' style='bottom: 0;  right: 0;'><img style=\"width: 100%; height: 100%;\" src='../static/human_exp_images/task_flip/02_2.png' class=''></img></div>\n\n        </div>","response":null,"trial_type":"html-keyboard-response","trial_index":46,"time_elapsed":79421,"internal_node_id":"0.0-13.0-3.2"},{"rt":1125,"response":{"Q0":""},"trial_type":"survey-text","trial_index":47,"time_elapsed":80552,"internal_node_id":"0.0-14.0"},{"rt":null,"stimulus":"<h1 style='font-size: 60px'>Block End</h1>","response":null,"trial_type":"html-keyboard-response","trial_index":48,"time_elapsed":81057,"internal_node_id":"0.0-15.0"},{"success":true,"timeout":false,"failed_images":[],"failed_audio":[],"failed_video":[],"trial_type":"preload","trial_index":49,"time_elapsed":81316,"internal_node_id":"0.0-16.0"},{"rt":809,"stimulus":"<h1 style='font-size: 60px'>New Rule!</h1> <p>Press any key to begin.</p>","response":" ","trial_type":"html-keyboard-response","trial_index":50,"time_elapsed":82126,"internal_node_id":"0.0-17.0"},{"rt":null,"trial_type":"image-click","trial_index":51,"time_elapsed":82129,"internal_node_id":"0.0-18.0-0.0"},{"rt":8664,"response":1,"all_choices":["../static/human_exp_images/task_rot_flip_1/00_2.png","../static/human_exp_images/task_rot_flip_1/00_1.png","../static/human_exp_images/task_rot_flip_1/00_0.png","../static/human_exp_images/task_rot_flip_1/00_3.png"],"task":"response","correct_response":3,"shuffled_array":[2,1,0,3],"catch_trial":false,"trial_type":"image-click","trial_index":52,"time_elapsed":90795,"internal_node_id":"0.0-18.0-1.0","mouse_tracking_data":[{"x":965,"y":529,"t":7866,"event":"mousemove"},{"x":965,"y":531,"t":7876,"event":"mousemove"},{"x":965,"y":532,"t":7893,"event":"mousemove"},{"x":967,"y":532,"t":7928,"event":"mousemove"},{"x":969,"y":532,"t":7956,"event":"mousemove"},{"x":970,"y":532,"t":8000,"event":"mousemove"},{"x":972,"y":532,"t":8009,"event":"mousemove"},{"x":974,"y":532,"t":8013,"event":"mousemove"},{"x":975,"y":532,"t":8020,"event":"mousemove"},{"x":977,"y":529,"t":8037,"event":"mousemove"},{"x":977,"y":527,"t":8038,"event":"mousemove"},{"x":979,"y":522,"t":8046,"event":"mousemove"},{"x":979,"y":519,"t":8048,"event":"mousemove"},{"x":981,"y":513,"t":8055,"event":"mousemove"},{"x":982,"y":512,"t":8060,"event":"mousemove"},{"x":982,"y":505,"t":8063,"event":"mousemove"},{"x":987,"y":488,"t":8080,"event":"mousemove"},{"x":993,"y":471,"t":8097,"event":"mousemove"},{"x":999,"y":454,"t":8112,"event":"mousemove"},{"x":1006,"y":442,"t":8130,"event":"mousemove"},{"x":1017,"y":418,"t":8146,"event":"mousemove"},{"x":1029,"y":402,"t":8163,"event":"mousemove"},{"x":1038,"y":393,"t":8180,"event":"mousemove"},{"x":1051,"y":378,"t":8196,"event":"mousemove"},{"x":1065,"y":366,"t":8213,"event":"mousemove"},{"x":1079,"y":353,"t":8230,"event":"mousemove"},{"x":1092,"y":342,"t":8247,"event":"mousemove"},{"x":1113,"y":321,"t":8263,"event":"mousemove"},{"x":1121,"y":311,"t":8280,"event":"mousemove"},{"x":1128,"y":301,"t":8296,"event":"mousemove"},{"x":1133,"y":296,"t":8313,"event":"mousemove"},{"x":1135,"y":292,"t":8330,"event":"mousemove"},{"x":1136,"y":292,"t":8347,"event":"mousemove"},{"x":1136,"y":290,"t":8481,"event":"mousemove"}],"mouse_tracking_targets":{},"correct":false},{"rt":1695,"stimulus":"<p>How confident are you about your choice ? (click on the bar)</p>","slider_start":50,"response":80,"trial_type":"html-slider-response","trial_index":53,"time_elapsed":92491,"internal_node_id":"0.0-18.0-2.0"},{"rt":null,"stimulus":"\n        <div id='jspsych-image' style='position: relative; width: min(80vw, 80vh); height: min(80vw, 80vh);'>\n                \n                <div style='position: absolute; top: 40%; left: 30%; bottom: 40%; right: 30%;'><h1 style='font-size: 60px; color: red'>Wrong</h1></div>\n                \n                <div class='jspsych-image' id='jspsych-image-0' data-choice='0' style='top: 0;     left: 0;'><img style=\"width: 100%; height: 100%;\" src='../static/human_exp_images/task_rot_flip_1/00_2.png' class=''></img></div>\n                <div class='jspsych-image' id='jspsych-image-1' data-choice='1' style='top: 0;     right: 0;'><img style=\"width: 100%; height: 100%;\" src='../static/human_exp_images/task_rot_flip_1/00_1.png' class='wrong-choice'></img></div>\n                <div class='jspsych-image' id='jspsych-image-2' data-choice='2' style='bottom: 0;  left: 0;'><img style=\"width: 100%; height: 100%;\" src='../static/human_exp_images/task_rot_flip_1/00_0.png' class=''></img></div>\n                <div class='jspsych-image' id='jspsych-image-3' data-choice='3' style='bottom: 0;  right: 0;'><img style=\"width: 100%; height: 100%;\" src='../static/human_exp_images/task_rot_flip_1/00_3.png' class='correct-choice'></img></div>\n\n        </div>","response":null,"trial_type":"html-keyboard-response","trial_index":54,"time_elapsed":94994,"internal_node_id":"0.0-18.0-3.0"},{"rt":null,"trial_type":"image-click","trial_index":55,"time_elapsed":95922,"internal_node_id":"0.0-18.0-0.1"},{"rt":2056,"response":0,"all_choices":["../static/human_exp_images/task_rot_flip_1/01_0.png","../static/human_exp_images/task_rot_flip_1/01_2.png","../static/human_exp_images/task_rot_flip_1/01_1.png","../static/human_exp_images/task_rot_flip_1/01_3.png"],"task":"response","correct_response":3,"shuffled_array":[0,2,1,3],"catch_trial":false,"trial_type":"image-click","trial_index":56,"time_elapsed":97980,"internal_node_id":"0.0-18.0-1.1","mouse_tracking_data":[{"x":1048,"y":478,"t":1,"event":"mousemove"},{"x":1031,"y":478,"t":14,"event":"mousemove"},{"x":1016,"y":478,"t":30,"event":"mousemove"},{"x":1007,"y":478,"t":48,"event":"mousemove"},{"x":1001,"y":478,"t":65,"event":"mousemove"},{"x":989,"y":475,"t":81,"event":"mousemove"},{"x":980,"y":471,"t":97,"event":"mousemove"},{"x":970,"y":469,"t":115,"event":"mousemove"},{"x":965,"y":468,"t":131,"event":"mousemove"},{"x":956,"y":466,"t":148,"event":"mousemove"},{"x":953,"y":466,"t":164,"event":"mousemove"},{"x":948,"y":464,"t":181,"event":"mousemove"},{"x":946,"y":464,"t":197,"event":"mousemove"},{"x":944,"y":464,"t":215,"event":"mousemove"},{"x":943,"y":464,"t":231,"event":"mousemove"},{"x":943,"y":463,"t":422,"event":"mousemove"},{"x":943,"y":461,"t":485,"event":"mousemove"},{"x":943,"y":459,"t":614,"event":"mousemove"},{"x":943,"y":458,"t":942,"event":"mousemove"},{"x":943,"y":456,"t":1115,"event":"mousemove"},{"x":943,"y":454,"t":1135,"event":"mousemove"},{"x":943,"y":453,"t":1151,"event":"mousemove"},{"x":943,"y":451,"t":1160,"event":"mousemove"},{"x":943,"y":449,"t":1165,"event":"mousemove"},{"x":943,"y":446,"t":1170,"event":"mousemove"},{"x":941,"y":437,"t":1186,"event":"mousemove"},{"x":936,"y":422,"t":1203,"event":"mousemove"},{"x":931,"y":410,"t":1219,"event":"mousemove"},{"x":927,"y":401,"t":1237,"event":"mousemove"},{"x":924,"y":395,"t":1253,"event":"mousemove"},{"x":917,"y":386,"t":1270,"event":"mousemove"},{"x":912,"y":379,"t":1286,"event":"mousemove"},{"x":903,"y":371,"t":1303,"event":"mousemove"},{"x":895,"y":364,"t":1320,"event":"mousemove"},{"x":890,"y":359,"t":1337,"event":"mousemove"},{"x":881,"y":354,"t":1354,"event":"mousemove"},{"x":874,"y":350,"t":1369,"event":"mousemove"},{"x":867,"y":347,"t":1387,"event":"mousemove"},{"x":857,"y":342,"t":1403,"event":"mousemove"},{"x":845,"y":335,"t":1420,"event":"mousemove"},{"x":835,"y":330,"t":1437,"event":"mousemove"},{"x":813,"y":318,"t":1453,"event":"mousemove"},{"x":802,"y":310,"t":1469,"event":"mousemove"},{"x":794,"y":304,"t":1486,"event":"mousemove"},{"x":782,"y":296,"t":1504,"event":"mousemove"},{"x":771,"y":289,"t":1520,"event":"mousemove"},{"x":759,"y":280,"t":1537,"event":"mousemove"},{"x":753,"y":275,"t":1553,"event":"mousemove"},{"x":746,"y":270,"t":1571,"event":"mousemove"}],"mouse_tracking_targets":{},"correct":false},{"rt":1670,"stimulus":"<p>How confident are you about your choice ? (click on the bar)</p>","slider_start":50,"response":80,"trial_type":"html-slider-response","trial_index":57,"time_elapsed":99652,"internal_node_id":"0.0-18.0-2.1"},{"rt":null,"stimulus":"\n        <div id='jspsych-image' style='position: relative; width: min(80vw, 80vh); height: min(80vw, 80vh);'>\n                \n                <div style='position: absolute; top: 40%; left: 30%; bottom: 40%; right: 30%;'><h1 style='font-size: 60px; color: red'>Wrong</h1></div>\n                \n                <div class='jspsych-image' id='jspsych-image-0' data-choice='0' style='top: 0;     left: 0;'><img style=\"width: 100%; height: 100%;\" src='../static/human_exp_images/task_rot_flip_1/01_0.png' class='wrong-choice'></img></div>\n                <div class='jspsych-image' id='jspsych-image-1' data-choice='1' style='top: 0;     right: 0;'><img style=\"width: 100%; height: 100%;\" src='../static/human_exp_images/task_rot_flip_1/01_2.png' class=''></img></div>\n                <div class='jspsych-image' id='jspsych-image-2' data-choice='2' style='bottom: 0;  left: 0;'><img style=\"width: 100%; height: 100%;\" src='../static/human_exp_images/task_rot_flip_1/01_1.png' class=''></img></div>\n                <div class='jspsych-image' id='jspsych-image-3' data-choice='3' style='bottom: 0;  right: 0;'><img style=\"width: 100%; height: 100%;\" src='../static/human_exp_images/task_rot_flip_1/01_3.png' class='correct-choice'></img></div>\n\n        </div>","response":null,"trial_type":"html-keyboard-response","trial_index":58,"time_elapsed":102156,"internal_node_id":"0.0-18.0-3.1"},{"rt":null,"trial_type":"image-click","trial_index":59,"time_elapsed":103674,"internal_node_id":"0.0-18.0-0.2"}]