[{"success":true,"timeout":false,"failed_images":[],"failed_audio":[],"failed_video":[],"trial_type":"preload","trial_index":0,"time_elapsed":1132,"internal_node_id":"0.0-0.0"},{"rt":968,"stimulus":"<p style='font-size: 40px'>Welcome to the experiment.</p><p style='font-size: 30px'>Press any key to begin.</p>","response":" ","trial_type":"html-keyboard-response","trial_index":1,"time_elapsed":2101,"internal_node_id":"0.0-1.0"},{"rt":1431,"stimulus":"\n    <p>In this experiment, 4 images will appear on the screen. 3 out of 4 images were generated with a certain rule while one image (the odd one out) does not respect this rule.</p>\n    <p>Select the odd one out by clicking on the image.</p>\n    <p>Following your choice, you will be asked to rate how confident you were about your choice on a scale from 1 to 100. Then, you will receive feedback on the trial.</p>\n    <p>For each rule you will perform 21 trials. You will be notified at each rule change.</p>\n    <p>The following 3 trials will allow you to get familiar with the odd-one-out task. The experiment starts after this practice session.</p>\n    \n    <p>Press any button to continue</p>\n    <div style='margin: auto; position: relative; width: 400px; height: 400px;'>\n        <div style='position: absolute; top: 0;     left: 0; '><img src='../static/img/square.png'></img></div>\n        <div style='position: absolute; top: 0;     right: 0;'><img src='../static/img/square.png'></img></div>\n        <div style='position: absolute; bottom: 0;  left: 0; '><img src='../static/img/square.png'></img></div>\n        <div style='position: absolute; bottom: 0;  right: 0;'><img src='../static/img/square.png'></img></div>\n    </div>\n","response":" ","trial_type":"html-keyboard-response","trial_index":2,"time_elapsed":3534,"internal_node_id":"0.0-2.0"},{"rt":null,"trial_type":"image-click","trial_index":3,"time_elapsed":5535,"internal_node_id":"0.0-3.0-0.0"},{"rt":1652,"response":3,"all_choices":["../static/human_exp_images/practice_img/00_0.png","../static/human_exp_images/practice_img/00_2.png","../static/human_exp_images/practice_img/00_1.png","../static/human_exp_images/practice_img/00_3.png"],"task":"response","correct_response":3,"shuffled_array":[0,2,1,3],"catch_trial":false,"trial_type":"image-click","trial_index":4,"time_elapsed":7188,"internal_node_id":"0.0-3.0-1.0","mouse_tracking_data":[{"x":915,"y":512,"t":848,"event":"mousemove"},{"x":913,"y":510,"t":855,"event":"mousemove"},{"x":911,"y":510,"t":855,"event":"mousemove"},{"x":913,"y":510,"t":904,"event":"mousemove"},{"x":920,"y":510,"t":911,"event":"mousemove"},{"x":921,"y":510,"t":913,"event":"mousemove"},{"x":930,"y":510,"t":920,"event":"mousemove"},{"x":933,"y":510,"t":922,"event":"mousemove"},{"x":940,"y":510,"t":929,"event":"mousemove"},{"x":944,"y":510,"t":933,"event":"mousemove"},{"x":951,"y":510,"t":938,"event":"mousemove"},{"x":955,"y":510,"t":943,"event":"mousemove"},{"x":962,"y":510,"t":947,"event":"mousemove"},{"x":978,"y":510,"t":963,"event":"mousemove"},{"x":998,"y":523,"t":981,"event":"mousemove"},{"x":1020,"y":536,"t":997,"event":"mousemove"},{"x":1040,"y":551,"t":1013,"event":"mousemove"},{"x":1060,"y":562,"t":1030,"event":"mousemove"},{"x":1076,"y":574,"t":1047,"event":"mousemove"},{"x":1093,"y":584,"t":1064,"event":"mousemove"},{"x":1104,"y":589,"t":1080,"event":"mousemove"},{"x":1116,"y":598,"t":1097,"event":"mousemove"},{"x":1124,"y":600,"t":1114,"event":"mousemove"},{"x":1135,"y":604,"t":1131,"event":"mousemove"},{"x":1140,"y":606,"t":1148,"event":"mousemove"},{"x":1145,"y":607,"t":1163,"event":"mousemove"},{"x":1152,"y":613,"t":1180,"event":"mousemove"},{"x":1152,"y":614,"t":1360,"event":"mousemove"}],"mouse_tracking_targets":{},"correct":true}]