[{"rt":673,"stimulus":"<p style='font-size: 40px'>Welcome to the experiment.</p><p style='font-size: 30px'>Press any key to begin.</p>","response":" ","trial_type":"html-keyboard-response","trial_index":0,"time_elapsed":675,"internal_node_id":"0.0-0.0"},{"rt":493,"stimulus":"\n    <p>This experiment aims to measure humans' visual reasoning skills. You will go through a practice session consisting of 3 trials, followed by 6 blocks of 21 trials.</p>\n    <p>When presented with an empty square in the middle of the screen, place your cursor on it to start the trial.</p>\n    <p>4 images will appear on the screen. 3 out of 4 images were generated with a certain rule while one image (the odd one out) does not respect this rule.</p>\n    <p>Select the odd one out by clicking on the image.</p>\n    <p>Following your choice, you will be asked to rate how confident you were about your choice on a scale from 0 to 100. Then, you will receive feedback on the trial.</p>\n    <p>The 21 trials of a block use the same rule and each block uses a different rule. At the end of each block, you will asked to describe the rule before starting a new block.</p>\n    <p>Please do not take breaks only in between blocks not in between trials.</p>\n    <p>The following 3 trials will allow you to get familiar with the odd-one-out task. The experiment starts after this practice session.</p>\n    \n    <p>Press any button to continue</p>\n    <div style='margin: auto; position: relative; width: 400px; height: 400px;'>\n        <div style='position: absolute; top: 0;     left: 0; '><img src='../static/img/square.png'></img></div>\n        <div style='position: absolute; top: 0;     right: 0;'><img src='../static/img/square.png'></img></div>\n        <div style='position: absolute; bottom: 0;  left: 0; '><img src='../static/img/square.png'></img></div>\n        <div style='position: absolute; bottom: 0;  right: 0;'><img src='../static/img/square.png'></img></div>\n    </div>\n","response":" ","trial_type":"html-keyboard-response","trial_index":1,"time_elapsed":1171,"internal_node_id":"0.0-1.0"},{"rt":4130,"response":{"Instruction Check":["There are 6 blocks of 21 trials.","The tasks consists of choosing one image that's different from the other three."]},"question_order":[0],"trial_type":"survey-multi-select","trial_index":2,"time_elapsed":7311,"internal_node_id":"0.0-2.0"},{"success":true,"timeout":false,"failed_images":[],"failed_audio":[],"failed_video":[],"trial_type":"preload","trial_index":3,"time_elapsed":7516,"internal_node_id":"0.0-3.0"},{"rt":null,"trial_type":"image-click","trial_index":4,"time_elapsed":8405,"internal_node_id":"0.0-4.0-0.0"},{"rt":874,"response":3,"all_choices":["../static/human_exp_images/practice_img/00_1.png","../static/human_exp_images/practice_img/00_2.png","../static/human_exp_images/practice_img/00_0.png","../static/human_exp_images/practice_img/00_3.png"],"task":"response","correct_response":3,"shuffled_array":[1,2,0,3],"catch_trial":false,"trial_type":"image-click","trial_index":5,"time_elapsed":9283,"internal_node_id":"0.0-4.0-1.0","mouse_tracking_data":[{"x":944,"y":523,"t":1,"event":"mousemove"},{"x":942,"y":503,"t":13,"event":"mousemove"},{"x":942,"y":498,"t":30,"event":"mousemove"},{"x":942,"y":495,"t":45,"event":"mousemove"},{"x":942,"y":493,"t":71,"event":"mousemove"},{"x":942,"y":491,"t":107,"event":"mousemove"},{"x":942,"y":489,"t":124,"event":"mousemove"},{"x":943,"y":489,"t":234,"event":"mousemove"},{"x":945,"y":489,"t":245,"event":"mousemove"},{"x":947,"y":489,"t":253,"event":"mousemove"},{"x":950,"y":489,"t":261,"event":"mousemove"},{"x":952,"y":489,"t":266,"event":"mousemove"},{"x":955,"y":489,"t":270,"event":"mousemove"},{"x":957,"y":489,"t":273,"event":"mousemove"},{"x":965,"y":489,"t":290,"event":"mousemove"},{"x":979,"y":496,"t":306,"event":"mousemove"},{"x":984,"y":501,"t":322,"event":"mousemove"},{"x":991,"y":507,"t":340,"event":"mousemove"},{"x":993,"y":510,"t":356,"event":"mousemove"},{"x":995,"y":510,"t":373,"event":"mousemove"},{"x":996,"y":510,"t":389,"event":"mousemove"},{"x":996,"y":512,"t":553,"event":"mousemove"},{"x":996,"y":513,"t":562,"event":"mousemove"},{"x":996,"y":515,"t":571,"event":"mousemove"},{"x":996,"y":518,"t":580,"event":"mousemove"},{"x":996,"y":520,"t":583,"event":"mousemove"},{"x":996,"y":524,"t":588,"event":"mousemove"},{"x":996,"y":527,"t":589,"event":"mousemove"},{"x":1004,"y":537,"t":606,"event":"mousemove"},{"x":1041,"y":577,"t":623,"event":"mousemove"},{"x":1094,"y":627,"t":639,"event":"mousemove"},{"x":1152,"y":678,"t":656,"event":"mousemove"},{"x":1181,"y":704,"t":672,"event":"mousemove"},{"x":1190,"y":711,"t":690,"event":"mousemove"},{"x":1196,"y":716,"t":705,"event":"mousemove"},{"x":1197,"y":716,"t":723,"event":"mousemove"}],"mouse_tracking_targets":{},"correct":true},{"rt":1281,"stimulus":"<p>How confident are you about your choice ? (click on the bar)</p>","slider_start":50,"response":100,"trial_type":"html-slider-response","trial_index":6,"time_elapsed":10566,"internal_node_id":"0.0-4.0-2.0"},{"rt":null,"stimulus":"\n        <div id='jspsych-image' style='position: relative; width: min(80vw, 80vh); height: min(80vw, 80vh);'>\n                \n                <div style='position: absolute; top: 40%; left: 30%; bottom: 40%; right: 30%;'><h1 style='font-size: 60px; color: green;'>Correct!</h1></div>\n                \n                <div class='jspsych-image' id='jspsych-image-0' data-choice='0' style='top: 0;     left: 0;'><img style=\"width: 100%; height: 100%;\" src='../static/human_exp_images/practice_img/00_1.png' class=''></img></div>\n                <div class='jspsych-image' id='jspsych-image-1' data-choice='1' style='top: 0;     right: 0;'><img style=\"width: 100%; height: 100%;\" src='../static/human_exp_images/practice_img/00_2.png' class=''></img></div>\n                <div class='jspsych-image' id='jspsych-image-2' data-choice='2' style='bottom: 0;  left: 0;'><img style=\"width: 100%; height: 100%;\" src='../static/human_exp_images/practice_img/00_0.png' class=''></img></div>\n                <div class='jspsych-image' id='jspsych-image-3' data-choice='3' style='bottom: 0;  right: 0;'><img style=\"width: 100%; height: 100%;\" src='../static/human_exp_images/practice_img/00_3.png' class='correct-choice'></img></div>\n\n        </div>","response":null,"trial_type":"html-keyboard-response","trial_index":7,"time_elapsed":12068,"internal_node_id":"0.0-4.0-3.0"},{"rt":null,"trial_type":"image-click","trial_index":8,"time_elapsed":12525,"internal_node_id":"0.0-4.0-0.1"},{"rt":994,"response":2,"all_choices":["../static/human_exp_images/practice_img/01_0.png","../static/human_exp_images/practice_img/01_1.png","../static/human_exp_images/practice_img/01_3.png","../static/human_exp_images/practice_img/01_2.png"],"task":"response","correct_response":2,"shuffled_array":[0,1,3,2],"catch_trial":false,"trial_type":"image-click","trial_index":9,"time_elapsed":13522,"internal_node_id":"0.0-4.0-1.1","mouse_tracking_data":[{"x":1025,"y":466,"t":1,"event":"mousemove"},{"x":1002,"y":462,"t":14,"event":"mousemove"},{"x":984,"y":457,"t":30,"event":"mousemove"},{"x":975,"y":456,"t":46,"event":"mousemove"},{"x":970,"y":456,"t":64,"event":"mousemove"},{"x":966,"y":454,"t":80,"event":"mousemove"},{"x":970,"y":454,"t":275,"event":"mousemove"},{"x":971,"y":454,"t":277,"event":"mousemove"},{"x":975,"y":454,"t":283,"event":"mousemove"},{"x":976,"y":454,"t":284,"event":"mousemove"},{"x":983,"y":454,"t":300,"event":"mousemove"},{"x":995,"y":454,"t":317,"event":"mousemove"},{"x":1006,"y":454,"t":333,"event":"mousemove"},{"x":1019,"y":454,"t":350,"event":"mousemove"},{"x":1031,"y":461,"t":366,"event":"mousemove"},{"x":1058,"y":473,"t":383,"event":"mousemove"},{"x":1083,"y":487,"t":400,"event":"mousemove"},{"x":1109,"y":502,"t":416,"event":"mousemove"},{"x":1147,"y":534,"t":433,"event":"mousemove"},{"x":1172,"y":562,"t":450,"event":"mousemove"},{"x":1182,"y":581,"t":467,"event":"mousemove"},{"x":1184,"y":584,"t":483,"event":"mousemove"},{"x":1184,"y":586,"t":500,"event":"mousemove"},{"x":1175,"y":586,"t":547,"event":"mousemove"},{"x":1172,"y":586,"t":551,"event":"mousemove"},{"x":1101,"y":557,"t":567,"event":"mousemove"},{"x":1037,"y":534,"t":583,"event":"mousemove"},{"x":988,"y":519,"t":600,"event":"mousemove"},{"x":913,"y":498,"t":617,"event":"mousemove"},{"x":867,"y":494,"t":633,"event":"mousemove"},{"x":830,"y":494,"t":651,"event":"mousemove"},{"x":811,"y":494,"t":667,"event":"mousemove"},{"x":787,"y":496,"t":683,"event":"mousemove"},{"x":778,"y":503,"t":700,"event":"mousemove"},{"x":756,"y":522,"t":717,"event":"mousemove"},{"x":724,"y":545,"t":733,"event":"mousemove"},{"x":695,"y":562,"t":750,"event":"mousemove"},{"x":676,"y":578,"t":767,"event":"mousemove"},{"x":659,"y":591,"t":783,"event":"mousemove"},{"x":655,"y":593,"t":800,"event":"mousemove"},{"x":654,"y":596,"t":817,"event":"mousemove"},{"x":654,"y":598,"t":834,"event":"mousemove"}],"mouse_tracking_targets":{},"correct":true},{"rt":2339,"stimulus":"<p>How confident are you about your choice ? (click on the bar)</p>","slider_start":50,"response":100,"trial_type":"html-slider-response","trial_index":10,"time_elapsed":15861,"internal_node_id":"0.0-4.0-2.1"},{"rt":null,"stimulus":"\n        <div id='jspsych-image' style='position: relative; width: min(80vw, 80vh); height: min(80vw, 80vh);'>\n                \n                <div style='position: absolute; top: 40%; left: 30%; bottom: 40%; right: 30%;'><h1 style='font-size: 60px; color: green;'>Correct!</h1></div>\n                \n                <div class='jspsych-image' id='jspsych-image-0' data-choice='0' style='top: 0;     left: 0;'><img style=\"width: 100%; height: 100%;\" src='../static/human_exp_images/practice_img/01_0.png' class=''></img></div>\n                <div class='jspsych-image' id='jspsych-image-1' data-choice='1' style='top: 0;     right: 0;'><img style=\"width: 100%; height: 100%;\" src='../static/human_exp_images/practice_img/01_1.png' class=''></img></div>\n                <div class='jspsych-image' id='jspsych-image-2' data-choice='2' style='bottom: 0;  left: 0;'><img style=\"width: 100%; height: 100%;\" src='../static/human_exp_images/practice_img/01_3.png' class='correct-choice'></img></div>\n                <div class='jspsych-image' id='jspsych-image-3' data-choice='3' style='bottom: 0;  right: 0;'><img style=\"width: 100%; height: 100%;\" src='../static/human_exp_images/practice_img/01_2.png' class=''></img></div>\n\n        </div>","response":null,"trial_type":"html-keyboard-response","trial_index":11,"time_elapsed":17365,"internal_node_id":"0.0-4.0-3.1"},{"rt":null,"trial_type":"image-click","trial_index":12,"time_elapsed":17758,"internal_node_id":"0.0-4.0-0.2"},{"rt":931,"response":1,"all_choices":["../static/human_exp_images/practice_img/02_1.png","../static/human_exp_images/practice_img/02_3.png","../static/human_exp_images/practice_img/02_2.png","../static/human_exp_images/practice_img/02_0.png"],"task":"response","correct_response":1,"shuffled_array":[1,3,2,0],"catch_trial":false,"trial_type":"image-click","trial_index":13,"time_elapsed":18692,"internal_node_id":"0.0-4.0-1.2","mouse_tracking_data":[{"x":1050,"y":459,"t":1,"event":"mousemove"},{"x":1047,"y":459,"t":13,"event":"mousemove"},{"x":1043,"y":459,"t":31,"event":"mousemove"},{"x":1038,"y":459,"t":48,"event":"mousemove"},{"x":1033,"y":459,"t":64,"event":"mousemove"},{"x":1024,"y":458,"t":81,"event":"mousemove"},{"x":1018,"y":458,"t":97,"event":"mousemove"},{"x":1007,"y":458,"t":114,"event":"mousemove"},{"x":1001,"y":458,"t":132,"event":"mousemove"},{"x":992,"y":458,"t":148,"event":"mousemove"},{"x":989,"y":458,"t":164,"event":"mousemove"},{"x":985,"y":458,"t":180,"event":"mousemove"},{"x":980,"y":458,"t":198,"event":"mousemove"},{"x":978,"y":458,"t":214,"event":"mousemove"},{"x":977,"y":458,"t":231,"event":"mousemove"},{"x":978,"y":458,"t":535,"event":"mousemove"},{"x":980,"y":458,"t":540,"event":"mousemove"},{"x":982,"y":458,"t":549,"event":"mousemove"},{"x":983,"y":458,"t":560,"event":"mousemove"},{"x":985,"y":458,"t":570,"event":"mousemove"},{"x":987,"y":458,"t":574,"event":"mousemove"},{"x":988,"y":458,"t":584,"event":"mousemove"},{"x":990,"y":458,"t":593,"event":"mousemove"},{"x":992,"y":458,"t":594,"event":"mousemove"},{"x":997,"y":458,"t":611,"event":"mousemove"},{"x":1023,"y":439,"t":627,"event":"mousemove"},{"x":1045,"y":411,"t":643,"event":"mousemove"},{"x":1083,"y":368,"t":660,"event":"mousemove"},{"x":1115,"y":330,"t":677,"event":"mousemove"},{"x":1135,"y":307,"t":693,"event":"mousemove"},{"x":1151,"y":288,"t":711,"event":"mousemove"},{"x":1160,"y":278,"t":727,"event":"mousemove"},{"x":1169,"y":266,"t":744,"event":"mousemove"},{"x":1171,"y":260,"t":761,"event":"mousemove"},{"x":1175,"y":258,"t":778,"event":"mousemove"},{"x":1175,"y":256,"t":803,"event":"mousemove"},{"x":1175,"y":254,"t":821,"event":"mousemove"},{"x":1176,"y":254,"t":827,"event":"mousemove"},{"x":1176,"y":253,"t":856,"event":"mousemove"}],"mouse_tracking_targets":{},"correct":true},{"rt":1155,"stimulus":"<p>How confident are you about your choice ? (click on the bar)</p>","slider_start":50,"response":99,"trial_type":"html-slider-response","trial_index":14,"time_elapsed":19849,"internal_node_id":"0.0-4.0-2.2"},{"rt":null,"stimulus":"\n        <div id='jspsych-image' style='position: relative; width: min(80vw, 80vh); height: min(80vw, 80vh);'>\n                \n                <div style='position: absolute; top: 40%; left: 30%; bottom: 40%; right: 30%;'><h1 style='font-size: 60px; color: green;'>Correct!</h1></div>\n                \n                <div class='jspsych-image' id='jspsych-image-0' data-choice='0' style='top: 0;     left: 0;'><img style=\"width: 100%; height: 100%;\" src='../static/human_exp_images/practice_img/02_1.png' class=''></img></div>\n                <div class='jspsych-image' id='jspsych-image-1' data-choice='1' style='top: 0;     right: 0;'><img style=\"width: 100%; height: 100%;\" src='../static/human_exp_images/practice_img/02_3.png' class='correct-choice'></img></div>\n                <div class='jspsych-image' id='jspsych-image-2' data-choice='2' style='bottom: 0;  left: 0;'><img style=\"width: 100%; height: 100%;\" src='../static/human_exp_images/practice_img/02_2.png' class=''></img></div>\n                <div class='jspsych-image' id='jspsych-image-3' data-choice='3' style='bottom: 0;  right: 0;'><img style=\"width: 100%; height: 100%;\" src='../static/human_exp_images/practice_img/02_0.png' class=''></img></div>\n\n        </div>","response":null,"trial_type":"html-keyboard-response","trial_index":15,"time_elapsed":21352,"internal_node_id":"0.0-4.0-3.2"},{"rt":733,"stimulus":"<p style='font-size: 40px'>The practice session is over. The experiment begin now!</p> \n                <p>Please take pauses on only at the \"new rule\" pages.</p> \n                <p>Press any key to begin.</p>","response":" ","trial_type":"html-keyboard-response","trial_index":16,"time_elapsed":22093,"internal_node_id":"0.0-5.0"},{"success":true,"timeout":false,"failed_images":[],"failed_audio":[],"failed_video":[],"trial_type":"preload","trial_index":17,"time_elapsed":22118,"internal_node_id":"0.0-6.0"},{"rt":1000,"stimulus":"<h1 style='font-size: 60px'>New Rule!</h1> <p>Press any key to begin.</p>","response":" ","trial_type":"html-keyboard-response","trial_index":18,"time_elapsed":23117,"internal_node_id":"0.0-7.0"},{"rt":null,"trial_type":"image-click","trial_index":19,"time_elapsed":23563,"internal_node_id":"0.0-8.0-0.0"},{"rt":1025,"response":0,"all_choices":["../static/human_exp_images/task_color/00_3.png","../static/human_exp_images/task_color/00_0.png","../static/human_exp_images/task_color/00_1.png","../static/human_exp_images/task_color/00_2.png"],"task":"response","correct_response":0,"shuffled_array":[3,0,1,2],"catch_trial":false,"trial_type":"image-click","trial_index":20,"time_elapsed":24590,"internal_node_id":"0.0-8.0-1.0","mouse_tracking_data":[{"x":1016,"y":458,"t":1,"event":"mousemove"},{"x":966,"y":451,"t":16,"event":"mousemove"},{"x":945,"y":449,"t":32,"event":"mousemove"},{"x":934,"y":449,"t":49,"event":"mousemove"},{"x":931,"y":449,"t":65,"event":"mousemove"},{"x":929,"y":449,"t":82,"event":"mousemove"},{"x":927,"y":449,"t":112,"event":"mousemove"},{"x":925,"y":449,"t":121,"event":"mousemove"},{"x":924,"y":449,"t":139,"event":"mousemove"},{"x":924,"y":448,"t":559,"event":"mousemove"},{"x":924,"y":446,"t":587,"event":"mousemove"},{"x":924,"y":444,"t":596,"event":"mousemove"},{"x":924,"y":442,"t":607,"event":"mousemove"},{"x":924,"y":441,"t":614,"event":"mousemove"},{"x":924,"y":436,"t":622,"event":"mousemove"},{"x":922,"y":431,"t":631,"event":"mousemove"},{"x":920,"y":431,"t":634,"event":"mousemove"},{"x":912,"y":422,"t":650,"event":"mousemove"},{"x":905,"y":413,"t":667,"event":"mousemove"},{"x":901,"y":410,"t":684,"event":"mousemove"},{"x":898,"y":407,"t":701,"event":"mousemove"},{"x":898,"y":405,"t":716,"event":"mousemove"},{"x":896,"y":403,"t":734,"event":"mousemove"},{"x":893,"y":402,"t":750,"event":"mousemove"},{"x":884,"y":396,"t":767,"event":"mousemove"},{"x":874,"y":390,"t":784,"event":"mousemove"},{"x":847,"y":372,"t":800,"event":"mousemove"},{"x":820,"y":348,"t":817,"event":"mousemove"},{"x":801,"y":331,"t":833,"event":"mousemove"},{"x":779,"y":318,"t":851,"event":"mousemove"},{"x":774,"y":315,"t":867,"event":"mousemove"},{"x":770,"y":312,"t":884,"event":"mousemove"},{"x":767,"y":310,"t":900,"event":"mousemove"},{"x":767,"y":308,"t":917,"event":"mousemove"}],"mouse_tracking_targets":{},"correct":true},{"rt":1518,"stimulus":"<p>How confident are you about your choice ? (click on the bar)</p>","slider_start":50,"response":100,"trial_type":"html-slider-response","trial_index":21,"time_elapsed":26110,"internal_node_id":"0.0-8.0-2.0"},{"rt":null,"stimulus":"\n        <div id='jspsych-image' style='position: relative; width: min(80vw, 80vh); height: min(80vw, 80vh);'>\n                \n                <div style='position: absolute; top: 40%; left: 30%; bottom: 40%; right: 30%;'><h1 style='font-size: 60px; color: green;'>Correct!</h1></div>\n                \n                <div class='jspsych-image' id='jspsych-image-0' data-choice='0' style='top: 0;     left: 0;'><img style=\"width: 100%; height: 100%;\" src='../static/human_exp_images/task_color/00_3.png' class='correct-choice'></img></div>\n                <div class='jspsych-image' id='jspsych-image-1' data-choice='1' style='top: 0;     right: 0;'><img style=\"width: 100%; height: 100%;\" src='../static/human_exp_images/task_color/00_0.png' class=''></img></div>\n                <div class='jspsych-image' id='jspsych-image-2' data-choice='2' style='bottom: 0;  left: 0;'><img style=\"width: 100%; height: 100%;\" src='../static/human_exp_images/task_color/00_1.png' class=''></img></div>\n                <div class='jspsych-image' id='jspsych-image-3' data-choice='3' style='bottom: 0;  right: 0;'><img style=\"width: 100%; height: 100%;\" src='../static/human_exp_images/task_color/00_2.png' class=''></img></div>\n\n        </div>","response":null,"trial_type":"html-keyboard-response","trial_index":22,"time_elapsed":27614,"internal_node_id":"0.0-8.0-3.0"},{"rt":null,"trial_type":"image-click","trial_index":23,"time_elapsed":28018,"internal_node_id":"0.0-8.0-0.1"},{"rt":969,"response":0,"all_choices":["../static/human_exp_images/task_color/01_3.png","../static/human_exp_images/task_color/01_1.png","../static/human_exp_images/task_color/01_2.png","../static/human_exp_images/task_color/01_0.png"],"task":"response","correct_response":0,"shuffled_array":[3,1,2,0],"catch_trial":false,"trial_type":"image-click","trial_index":24,"time_elapsed":28988,"internal_node_id":"0.0-8.0-1.1","mouse_tracking_data":[{"x":1021,"y":468,"t":1,"event":"mousemove"},{"x":966,"y":468,"t":16,"event":"mousemove"},{"x":947,"y":468,"t":32,"event":"mousemove"},{"x":936,"y":468,"t":49,"event":"mousemove"},{"x":935,"y":468,"t":66,"event":"mousemove"},{"x":933,"y":468,"t":82,"event":"mousemove"},{"x":938,"y":468,"t":285,"event":"mousemove"},{"x":942,"y":468,"t":286,"event":"mousemove"},{"x":953,"y":468,"t":303,"event":"mousemove"},{"x":963,"y":468,"t":320,"event":"mousemove"},{"x":976,"y":468,"t":336,"event":"mousemove"},{"x":986,"y":468,"t":352,"event":"mousemove"},{"x":995,"y":468,"t":368,"event":"mousemove"},{"x":998,"y":468,"t":386,"event":"mousemove"},{"x":1001,"y":468,"t":403,"event":"mousemove"},{"x":1003,"y":468,"t":421,"event":"mousemove"},{"x":996,"y":468,"t":675,"event":"mousemove"},{"x":993,"y":468,"t":677,"event":"mousemove"},{"x":964,"y":447,"t":694,"event":"mousemove"},{"x":928,"y":416,"t":711,"event":"mousemove"},{"x":906,"y":400,"t":726,"event":"mousemove"},{"x":880,"y":371,"t":743,"event":"mousemove"},{"x":851,"y":348,"t":760,"event":"mousemove"},{"x":837,"y":335,"t":777,"event":"mousemove"},{"x":831,"y":328,"t":794,"event":"mousemove"},{"x":829,"y":328,"t":810,"event":"mousemove"},{"x":827,"y":328,"t":827,"event":"mousemove"},{"x":826,"y":328,"t":847,"event":"mousemove"}],"mouse_tracking_targets":{},"correct":true},{"rt":1480,"stimulus":"<p>How confident are you about your choice ? (click on the bar)</p>","slider_start":50,"response":100,"trial_type":"html-slider-response","trial_index":25,"time_elapsed":30471,"internal_node_id":"0.0-8.0-2.1"},{"rt":null,"stimulus":"\n        <div id='jspsych-image' style='position: relative; width: min(80vw, 80vh); height: min(80vw, 80vh);'>\n                \n                <div style='position: absolute; top: 40%; left: 30%; bottom: 40%; right: 30%;'><h1 style='font-size: 60px; color: green;'>Correct!</h1></div>\n                \n                <div class='jspsych-image' id='jspsych-image-0' data-choice='0' style='top: 0;     left: 0;'><img style=\"width: 100%; height: 100%;\" src='../static/human_exp_images/task_color/01_3.png' class='correct-choice'></img></div>\n                <div class='jspsych-image' id='jspsych-image-1' data-choice='1' style='top: 0;     right: 0;'><img style=\"width: 100%; height: 100%;\" src='../static/human_exp_images/task_color/01_1.png' class=''></img></div>\n                <div class='jspsych-image' id='jspsych-image-2' data-choice='2' style='bottom: 0;  left: 0;'><img style=\"width: 100%; height: 100%;\" src='../static/human_exp_images/task_color/01_2.png' class=''></img></div>\n                <div class='jspsych-image' id='jspsych-image-3' data-choice='3' style='bottom: 0;  right: 0;'><img style=\"width: 100%; height: 100%;\" src='../static/human_exp_images/task_color/01_0.png' class=''></img></div>\n\n        </div>","response":null,"trial_type":"html-keyboard-response","trial_index":26,"time_elapsed":31975,"internal_node_id":"0.0-8.0-3.1"},{"rt":null,"trial_type":"image-click","trial_index":27,"time_elapsed":32344,"internal_node_id":"0.0-8.0-0.2"},{"rt":796,"response":0,"all_choices":["../static/human_exp_images/task_color/02_3.png","../static/human_exp_images/task_color/02_0.png","../static/human_exp_images/task_color/02_1.png","../static/human_exp_images/task_color/02_2.png"],"task":"response","correct_response":0,"shuffled_array":[3,0,1,2],"catch_trial":false,"trial_type":"image-click","trial_index":28,"time_elapsed":33141,"internal_node_id":"0.0-8.0-1.2","mouse_tracking_data":[{"x":1047,"y":464,"t":1,"event":"mousemove"},{"x":1023,"y":462,"t":15,"event":"mousemove"},{"x":999,"y":457,"t":31,"event":"mousemove"},{"x":972,"y":450,"t":47,"event":"mousemove"},{"x":948,"y":446,"t":64,"event":"mousemove"},{"x":940,"y":444,"t":81,"event":"mousemove"},{"x":934,"y":444,"t":98,"event":"mousemove"},{"x":933,"y":444,"t":115,"event":"mousemove"},{"x":933,"y":443,"t":131,"event":"mousemove"},{"x":933,"y":441,"t":356,"event":"mousemove"},{"x":933,"y":439,"t":393,"event":"mousemove"},{"x":933,"y":438,"t":410,"event":"mousemove"},{"x":933,"y":436,"t":439,"event":"mousemove"},{"x":933,"y":434,"t":451,"event":"mousemove"},{"x":933,"y":432,"t":456,"event":"mousemove"},{"x":931,"y":429,"t":465,"event":"mousemove"},{"x":929,"y":427,"t":466,"event":"mousemove"},{"x":924,"y":422,"t":482,"event":"mousemove"},{"x":914,"y":409,"t":500,"event":"mousemove"},{"x":892,"y":390,"t":515,"event":"mousemove"},{"x":869,"y":369,"t":532,"event":"mousemove"},{"x":836,"y":341,"t":550,"event":"mousemove"},{"x":815,"y":324,"t":567,"event":"mousemove"},{"x":789,"y":298,"t":582,"event":"mousemove"},{"x":769,"y":278,"t":599,"event":"mousemove"},{"x":755,"y":265,"t":616,"event":"mousemove"},{"x":747,"y":258,"t":632,"event":"mousemove"},{"x":742,"y":254,"t":649,"event":"mousemove"}],"mouse_tracking_targets":{},"correct":true},{"rt":1065,"stimulus":"<p>How confident are you about your choice ? (click on the bar)</p>","slider_start":50,"response":99,"trial_type":"html-slider-response","trial_index":29,"time_elapsed":34209,"internal_node_id":"0.0-8.0-2.2"},{"rt":null,"stimulus":"\n        <div id='jspsych-image' style='position: relative; width: min(80vw, 80vh); height: min(80vw, 80vh);'>\n                \n                <div style='position: absolute; top: 40%; left: 30%; bottom: 40%; right: 30%;'><h1 style='font-size: 60px; color: green;'>Correct!</h1></div>\n                \n                <div class='jspsych-image' id='jspsych-image-0' data-choice='0' style='top: 0;     left: 0;'><img style=\"width: 100%; height: 100%;\" src='../static/human_exp_images/task_color/02_3.png' class='correct-choice'></img></div>\n                <div class='jspsych-image' id='jspsych-image-1' data-choice='1' style='top: 0;     right: 0;'><img style=\"width: 100%; height: 100%;\" src='../static/human_exp_images/task_color/02_0.png' class=''></img></div>\n                <div class='jspsych-image' id='jspsych-image-2' data-choice='2' style='bottom: 0;  left: 0;'><img style=\"width: 100%; height: 100%;\" src='../static/human_exp_images/task_color/02_1.png' class=''></img></div>\n                <div class='jspsych-image' id='jspsych-image-3' data-choice='3' style='bottom: 0;  right: 0;'><img style=\"width: 100%; height: 100%;\" src='../static/human_exp_images/task_color/02_2.png' class=''></img></div>\n\n        </div>","response":null,"trial_type":"html-keyboard-response","trial_index":30,"time_elapsed":35711,"internal_node_id":"0.0-8.0-3.2"},{"rt":3268,"response":{"Q0":"ass"},"trial_type":"survey-text","trial_index":31,"time_elapsed":38997,"internal_node_id":"0.0-9.0"},{"rt":null,"stimulus":"<h1 style='font-size: 60px'>Block End</h1>","response":null,"trial_type":"html-keyboard-response","trial_index":32,"time_elapsed":39501,"internal_node_id":"0.0-10.0"},{"success":true,"timeout":false,"failed_images":[],"failed_audio":[],"failed_video":[],"trial_type":"preload","trial_index":33,"time_elapsed":39540,"internal_node_id":"0.0-11.0"},{"rt":1615,"stimulus":"<h1 style='font-size: 60px'>New Rule!</h1> <p>Press any key to begin.</p>","response":" ","trial_type":"html-keyboard-response","trial_index":34,"time_elapsed":41154,"internal_node_id":"0.0-12.0"},{"rt":null,"trial_type":"image-click","trial_index":35,"time_elapsed":41156,"internal_node_id":"0.0-13.0-0.0"},{"rt":46346,"response":0,"all_choices":["../static/human_exp_images/task_flip/00_3.png","../static/human_exp_images/task_flip/00_0.png","../static/human_exp_images/task_flip/00_1.png","../static/human_exp_images/task_flip/00_2.png"],"task":"response","correct_response":0,"shuffled_array":[3,0,1,2],"catch_trial":false,"trial_type":"image-click","trial_index":36,"time_elapsed":87505,"internal_node_id":"0.0-13.0-1.0","mouse_tracking_data":[{"x":958,"y":545,"t":1555,"event":"mousemove"},{"x":960,"y":545,"t":1706,"event":"mousemove"},{"x":948,"y":544,"t":1889,"event":"mousemove"},{"x":942,"y":542,"t":1891,"event":"mousemove"},{"x":776,"y":507,"t":1907,"event":"mousemove"},{"x":535,"y":456,"t":1925,"event":"mousemove"},{"x":67,"y":363,"t":1940,"event":"mousemove"},{"x":118,"y":742,"t":42268,"event":"mousemove"},{"x":325,"y":737,"t":42285,"event":"mousemove"},{"x":463,"y":737,"t":42302,"event":"mousemove"},{"x":591,"y":737,"t":42319,"event":"mousemove"},{"x":656,"y":737,"t":42334,"event":"mousemove"},{"x":756,"y":737,"t":42352,"event":"mousemove"},{"x":828,"y":737,"t":42368,"event":"mousemove"},{"x":876,"y":737,"t":42386,"event":"mousemove"},{"x":897,"y":737,"t":42403,"event":"mousemove"},{"x":903,"y":737,"t":42418,"event":"mousemove"},{"x":906,"y":737,"t":42436,"event":"mousemove"},{"x":912,"y":737,"t":42729,"event":"mousemove"},{"x":925,"y":737,"t":42732,"event":"mousemove"},{"x":964,"y":737,"t":42739,"event":"mousemove"},{"x":979,"y":737,"t":42742,"event":"mousemove"},{"x":1016,"y":733,"t":42747,"event":"mousemove"},{"x":1032,"y":729,"t":42752,"event":"mousemove"},{"x":1068,"y":721,"t":42756,"event":"mousemove"},{"x":1085,"y":717,"t":42757,"event":"mousemove"},{"x":1125,"y":712,"t":42765,"event":"mousemove"},{"x":1141,"y":708,"t":42775,"event":"mousemove"},{"x":1240,"y":700,"t":42791,"event":"mousemove"},{"x":1315,"y":696,"t":42808,"event":"mousemove"},{"x":1367,"y":696,"t":42825,"event":"mousemove"},{"x":1416,"y":696,"t":42841,"event":"mousemove"},{"x":1440,"y":696,"t":42858,"event":"mousemove"},{"x":1455,"y":696,"t":42874,"event":"mousemove"},{"x":1471,"y":696,"t":42891,"event":"mousemove"},{"x":1483,"y":696,"t":42908,"event":"mousemove"},{"x":1493,"y":696,"t":42925,"event":"mousemove"},{"x":1502,"y":696,"t":42942,"event":"mousemove"},{"x":1503,"y":696,"t":42958,"event":"mousemove"},{"x":1505,"y":696,"t":42975,"event":"mousemove"},{"x":1505,"y":694,"t":43075,"event":"mousemove"},{"x":1505,"y":692,"t":43089,"event":"mousemove"},{"x":1505,"y":691,"t":43102,"event":"mousemove"},{"x":1505,"y":689,"t":43120,"event":"mousemove"},{"x":1505,"y":687,"t":43129,"event":"mousemove"},{"x":1505,"y":682,"t":43139,"event":"mousemove"},{"x":1507,"y":677,"t":43148,"event":"mousemove"},{"x":1507,"y":674,"t":43149,"event":"mousemove"},{"x":1510,"y":662,"t":43166,"event":"mousemove"},{"x":1514,"y":655,"t":43182,"event":"mousemove"},{"x":1515,"y":648,"t":43199,"event":"mousemove"},{"x":1515,"y":643,"t":43216,"event":"mousemove"},{"x":1515,"y":641,"t":43232,"event":"mousemove"},{"x":1515,"y":639,"t":43249,"event":"mousemove"},{"x":1515,"y":638,"t":43275,"event":"mousemove"},{"x":1515,"y":636,"t":43321,"event":"mousemove"},{"x":1517,"y":636,"t":43404,"event":"mousemove"},{"x":1517,"y":634,"t":43431,"event":"mousemove"},{"x":1517,"y":633,"t":43458,"event":"mousemove"},{"x":1519,"y":633,"t":43476,"event":"mousemove"},{"x":1519,"y":631,"t":43494,"event":"mousemove"},{"x":1519,"y":629,"t":43521,"event":"mousemove"},{"x":1519,"y":627,"t":43548,"event":"mousemove"},{"x":1519,"y":626,"t":43567,"event":"mousemove"},{"x":1519,"y":624,"t":43585,"event":"mousemove"},{"x":1517,"y":624,"t":44355,"event":"mousemove"},{"x":1516,"y":624,"t":44399,"event":"mousemove"},{"x":1514,"y":624,"t":44436,"event":"mousemove"},{"x":1512,"y":624,"t":44500,"event":"mousemove"},{"x":1510,"y":624,"t":44526,"event":"mousemove"},{"x":1509,"y":624,"t":44553,"event":"mousemove"},{"x":1507,"y":624,"t":44590,"event":"mousemove"},{"x":1506,"y":624,"t":45357,"event":"mousemove"},{"x":1504,"y":624,"t":45368,"event":"mousemove"},{"x":1500,"y":622,"t":45375,"event":"mousemove"},{"x":1499,"y":621,"t":45378,"event":"mousemove"},{"x":1495,"y":617,"t":45384,"event":"mousemove"},{"x":1492,"y":616,"t":45389,"event":"mousemove"},{"x":1488,"y":612,"t":45392,"event":"mousemove"},{"x":1487,"y":612,"t":45394,"event":"mousemove"},{"x":1478,"y":605,"t":45410,"event":"mousemove"},{"x":1473,"y":602,"t":45427,"event":"mousemove"},{"x":1468,"y":598,"t":45444,"event":"mousemove"},{"x":1463,"y":595,"t":45461,"event":"mousemove"},{"x":1458,"y":593,"t":45477,"event":"mousemove"},{"x":1451,"y":590,"t":45494,"event":"mousemove"},{"x":1444,"y":586,"t":45510,"event":"mousemove"},{"x":1439,"y":585,"t":45527,"event":"mousemove"},{"x":1430,"y":581,"t":45545,"event":"mousemove"},{"x":1422,"y":578,"t":45561,"event":"mousemove"},{"x":1412,"y":575,"t":45577,"event":"mousemove"},{"x":1400,"y":569,"t":45593,"event":"mousemove"},{"x":1377,"y":557,"t":45611,"event":"mousemove"},{"x":1366,"y":551,"t":45627,"event":"mousemove"},{"x":1345,"y":543,"t":45644,"event":"mousemove"},{"x":1322,"y":533,"t":45661,"event":"mousemove"},{"x":1299,"y":525,"t":45677,"event":"mousemove"},{"x":1279,"y":517,"t":45693,"event":"mousemove"},{"x":1262,"y":511,"t":45711,"event":"mousemove"},{"x":1226,"y":505,"t":45728,"event":"mousemove"},{"x":1200,"y":498,"t":45744,"event":"mousemove"},{"x":1157,"y":493,"t":45761,"event":"mousemove"},{"x":1121,"y":491,"t":45777,"event":"mousemove"},{"x":1084,"y":485,"t":45794,"event":"mousemove"},{"x":1052,"y":480,"t":45810,"event":"mousemove"},{"x":1026,"y":478,"t":45828,"event":"mousemove"},{"x":981,"y":470,"t":45844,"event":"mousemove"},{"x":939,"y":465,"t":45860,"event":"mousemove"},{"x":909,"y":455,"t":45877,"event":"mousemove"},{"x":894,"y":451,"t":45894,"event":"mousemove"},{"x":881,"y":446,"t":45911,"event":"mousemove"},{"x":875,"y":444,"t":45927,"event":"mousemove"},{"x":869,"y":439,"t":45944,"event":"mousemove"},{"x":862,"y":434,"t":45960,"event":"mousemove"},{"x":853,"y":426,"t":45978,"event":"mousemove"},{"x":846,"y":421,"t":45994,"event":"mousemove"},{"x":840,"y":412,"t":46011,"event":"mousemove"},{"x":834,"y":407,"t":46028,"event":"mousemove"},{"x":828,"y":397,"t":46044,"event":"mousemove"},{"x":822,"y":388,"t":46061,"event":"mousemove"},{"x":817,"y":378,"t":46078,"event":"mousemove"},{"x":812,"y":368,"t":46095,"event":"mousemove"},{"x":809,"y":357,"t":46111,"event":"mousemove"},{"x":804,"y":345,"t":46128,"event":"mousemove"},{"x":800,"y":332,"t":46144,"event":"mousemove"},{"x":795,"y":320,"t":46161,"event":"mousemove"},{"x":792,"y":308,"t":46178,"event":"mousemove"},{"x":790,"y":303,"t":46195,"event":"mousemove"},{"x":788,"y":294,"t":46210,"event":"mousemove"},{"x":787,"y":287,"t":46227,"event":"mousemove"},{"x":785,"y":284,"t":46244,"event":"mousemove"},{"x":783,"y":280,"t":46261,"event":"mousemove"},{"x":783,"y":279,"t":46278,"event":"mousemove"},{"x":781,"y":277,"t":46294,"event":"mousemove"}],"mouse_tracking_targets":{},"correct":true},{"rt":1280,"stimulus":"<p>How confident are you about your choice ? (click on the bar)</p>","slider_start":50,"response":99,"trial_type":"html-slider-response","trial_index":37,"time_elapsed":88787,"internal_node_id":"0.0-13.0-2.0"},{"rt":null,"stimulus":"\n        <div id='jspsych-image' style='position: relative; width: min(80vw, 80vh); height: min(80vw, 80vh);'>\n                \n                <div style='position: absolute; top: 40%; left: 30%; bottom: 40%; right: 30%;'><h1 style='font-size: 60px; color: green;'>Correct!</h1></div>\n                \n                <div class='jspsych-image' id='jspsych-image-0' data-choice='0' style='top: 0;     left: 0;'><img style=\"width: 100%; height: 100%;\" src='../static/human_exp_images/task_flip/00_3.png' class='correct-choice'></img></div>\n                <div class='jspsych-image' id='jspsych-image-1' data-choice='1' style='top: 0;     right: 0;'><img style=\"width: 100%; height: 100%;\" src='../static/human_exp_images/task_flip/00_0.png' class=''></img></div>\n                <div class='jspsych-image' id='jspsych-image-2' data-choice='2' style='bottom: 0;  left: 0;'><img style=\"width: 100%; height: 100%;\" src='../static/human_exp_images/task_flip/00_1.png' class=''></img></div>\n                <div class='jspsych-image' id='jspsych-image-3' data-choice='3' style='bottom: 0;  right: 0;'><img style=\"width: 100%; height: 100%;\" src='../static/human_exp_images/task_flip/00_2.png' class=''></img></div>\n\n        </div>","response":null,"trial_type":"html-keyboard-response","trial_index":38,"time_elapsed":90292,"internal_node_id":"0.0-13.0-3.0"},{"rt":null,"trial_type":"image-click","trial_index":39,"time_elapsed":91405,"internal_node_id":"0.0-13.0-0.1"},{"rt":102573,"response":1,"all_choices":["../static/human_exp_images/task_flip/01_0.png","../static/human_exp_images/task_flip/01_3.png","../static/human_exp_images/task_flip/01_2.png","../static/human_exp_images/task_flip/01_1.png"],"task":"response","correct_response":1,"shuffled_array":[0,3,2,1],"catch_trial":false,"trial_type":"image-click","trial_index":40,"time_elapsed":193983,"internal_node_id":"0.0-13.0-1.1","mouse_tracking_data":[{"x":1051,"y":479,"t":1,"event":"mousemove"},{"x":1050,"y":479,"t":16,"event":"mousemove"},{"x":1046,"y":479,"t":31,"event":"mousemove"},{"x":1024,"y":475,"t":47,"event":"mousemove"},{"x":988,"y":468,"t":63,"event":"mousemove"},{"x":968,"y":463,"t":80,"event":"mousemove"},{"x":948,"y":459,"t":97,"event":"mousemove"},{"x":943,"y":457,"t":114,"event":"mousemove"},{"x":938,"y":455,"t":130,"event":"mousemove"},{"x":936,"y":455,"t":148,"event":"mousemove"},{"x":936,"y":454,"t":3289,"event":"mousemove"},{"x":938,"y":454,"t":3351,"event":"mousemove"},{"x":946,"y":454,"t":3367,"event":"mousemove"},{"x":969,"y":454,"t":3385,"event":"mousemove"},{"x":1003,"y":454,"t":3401,"event":"mousemove"},{"x":1040,"y":460,"t":3417,"event":"mousemove"},{"x":1068,"y":475,"t":3434,"event":"mousemove"},{"x":1108,"y":490,"t":3451,"event":"mousemove"},{"x":1133,"y":503,"t":3467,"event":"mousemove"},{"x":1172,"y":524,"t":3484,"event":"mousemove"},{"x":769,"y":279,"t":55295,"event":"mousemove"},{"x":193,"y":279,"t":55311,"event":"mousemove"},{"x":39,"y":279,"t":55334,"event":"mousemove"},{"x":281,"y":71,"t":73944,"event":"mousemove"},{"x":471,"y":71,"t":73961,"event":"mousemove"},{"x":532,"y":71,"t":73977,"event":"mousemove"},{"x":544,"y":67,"t":73995,"event":"mousemove"},{"x":544,"y":61,"t":74011,"event":"mousemove"},{"x":550,"y":61,"t":74207,"event":"mousemove"},{"x":568,"y":61,"t":74212,"event":"mousemove"},{"x":587,"y":61,"t":74218,"event":"mousemove"},{"x":628,"y":61,"t":74222,"event":"mousemove"},{"x":657,"y":61,"t":74223,"event":"mousemove"},{"x":743,"y":61,"t":74239,"event":"mousemove"},{"x":945,"y":61,"t":74256,"event":"mousemove"},{"x":1129,"y":83,"t":74271,"event":"mousemove"},{"x":1157,"y":512,"t":100862,"event":"mousemove"},{"x":1140,"y":512,"t":100879,"event":"mousemove"},{"x":1132,"y":512,"t":100895,"event":"mousemove"},{"x":1123,"y":512,"t":100912,"event":"mousemove"},{"x":1120,"y":512,"t":100929,"event":"mousemove"},{"x":1116,"y":512,"t":100946,"event":"mousemove"},{"x":1093,"y":512,"t":100962,"event":"mousemove"},{"x":1072,"y":512,"t":100979,"event":"mousemove"},{"x":1058,"y":507,"t":100996,"event":"mousemove"},{"x":1050,"y":505,"t":101012,"event":"mousemove"},{"x":1045,"y":502,"t":101029,"event":"mousemove"},{"x":1041,"y":500,"t":101045,"event":"mousemove"},{"x":1038,"y":498,"t":101063,"event":"mousemove"},{"x":1039,"y":498,"t":101374,"event":"mousemove"},{"x":1041,"y":498,"t":101383,"event":"mousemove"},{"x":1038,"y":498,"t":101500,"event":"mousemove"},{"x":1032,"y":498,"t":101505,"event":"mousemove"},{"x":1018,"y":498,"t":101509,"event":"mousemove"},{"x":1011,"y":498,"t":101513,"event":"mousemove"},{"x":998,"y":498,"t":101519,"event":"mousemove"},{"x":993,"y":498,"t":101521,"event":"mousemove"},{"x":959,"y":498,"t":101537,"event":"mousemove"},{"x":932,"y":498,"t":101554,"event":"mousemove"},{"x":892,"y":498,"t":101570,"event":"mousemove"},{"x":848,"y":496,"t":101587,"event":"mousemove"},{"x":815,"y":491,"t":101603,"event":"mousemove"},{"x":783,"y":484,"t":101620,"event":"mousemove"},{"x":770,"y":482,"t":101637,"event":"mousemove"},{"x":761,"y":482,"t":101653,"event":"mousemove"},{"x":749,"y":480,"t":101670,"event":"mousemove"},{"x":742,"y":480,"t":101686,"event":"mousemove"},{"x":742,"y":482,"t":101891,"event":"mousemove"},{"x":742,"y":484,"t":101908,"event":"mousemove"},{"x":742,"y":485,"t":101924,"event":"mousemove"},{"x":739,"y":485,"t":101990,"event":"mousemove"},{"x":732,"y":485,"t":101993,"event":"mousemove"},{"x":701,"y":485,"t":102009,"event":"mousemove"},{"x":665,"y":485,"t":102026,"event":"mousemove"},{"x":639,"y":485,"t":102042,"event":"mousemove"},{"x":609,"y":485,"t":102058,"event":"mousemove"},{"x":584,"y":485,"t":102074,"event":"mousemove"},{"x":566,"y":485,"t":102092,"event":"mousemove"},{"x":555,"y":485,"t":102109,"event":"mousemove"},{"x":552,"y":484,"t":102125,"event":"mousemove"},{"x":550,"y":482,"t":102142,"event":"mousemove"},{"x":550,"y":480,"t":102170,"event":"mousemove"},{"x":550,"y":478,"t":102190,"event":"mousemove"},{"x":550,"y":477,"t":102198,"event":"mousemove"},{"x":550,"y":475,"t":102208,"event":"mousemove"},{"x":550,"y":473,"t":102215,"event":"mousemove"},{"x":550,"y":470,"t":102224,"event":"mousemove"},{"x":550,"y":468,"t":102229,"event":"mousemove"},{"x":550,"y":465,"t":102233,"event":"mousemove"},{"x":550,"y":461,"t":102238,"event":"mousemove"},{"x":550,"y":456,"t":102242,"event":"mousemove"},{"x":550,"y":453,"t":102244,"event":"mousemove"},{"x":557,"y":443,"t":102259,"event":"mousemove"},{"x":585,"y":413,"t":102276,"event":"mousemove"},{"x":620,"y":377,"t":102293,"event":"mousemove"},{"x":656,"y":341,"t":102310,"event":"mousemove"},{"x":683,"y":317,"t":102326,"event":"mousemove"},{"x":703,"y":299,"t":102344,"event":"mousemove"},{"x":727,"y":280,"t":102360,"event":"mousemove"},{"x":737,"y":270,"t":102377,"event":"mousemove"},{"x":751,"y":256,"t":102394,"event":"mousemove"},{"x":757,"y":252,"t":102410,"event":"mousemove"},{"x":762,"y":247,"t":102427,"event":"mousemove"},{"x":763,"y":247,"t":102444,"event":"mousemove"}],"mouse_tracking_targets":{},"correct":true},{"rt":1068,"stimulus":"<p>How confident are you about your choice ? (click on the bar)</p>","slider_start":50,"response":100,"trial_type":"html-slider-response","trial_index":41,"time_elapsed":195054,"internal_node_id":"0.0-13.0-2.1"},{"rt":null,"stimulus":"\n        <div id='jspsych-image' style='position: relative; width: min(80vw, 80vh); height: min(80vw, 80vh);'>\n                \n                <div style='position: absolute; top: 40%; left: 30%; bottom: 40%; right: 30%;'><h1 style='font-size: 60px; color: green;'>Correct!</h1></div>\n                \n                <div class='jspsych-image' id='jspsych-image-0' data-choice='0' style='top: 0;     left: 0;'><img style=\"width: 100%; height: 100%;\" src='../static/human_exp_images/task_flip/01_0.png' class=''></img></div>\n                <div class='jspsych-image' id='jspsych-image-1' data-choice='1' style='top: 0;     right: 0;'><img style=\"width: 100%; height: 100%;\" src='../static/human_exp_images/task_flip/01_3.png' class='correct-choice'></img></div>\n                <div class='jspsych-image' id='jspsych-image-2' data-choice='2' style='bottom: 0;  left: 0;'><img style=\"width: 100%; height: 100%;\" src='../static/human_exp_images/task_flip/01_2.png' class=''></img></div>\n                <div class='jspsych-image' id='jspsych-image-3' data-choice='3' style='bottom: 0;  right: 0;'><img style=\"width: 100%; height: 100%;\" src='../static/human_exp_images/task_flip/01_1.png' class=''></img></div>\n\n        </div>","response":null,"trial_type":"html-keyboard-response","trial_index":42,"time_elapsed":196557,"internal_node_id":"0.0-13.0-3.1"},{"rt":null,"trial_type":"image-click","trial_index":43,"time_elapsed":197224,"internal_node_id":"0.0-13.0-0.2"},{"rt":2743,"response":2,"all_choices":["../static/human_exp_images/task_flip/02_1.png","../static/human_exp_images/task_flip/02_0.png","../static/human_exp_images/task_flip/02_3.png","../static/human_exp_images/task_flip/02_2.png"],"task":"response","correct_response":2,"shuffled_array":[1,0,3,2],"catch_trial":false,"trial_type":"image-click","trial_index":44,"time_elapsed":199991,"internal_node_id":"0.0-13.0-1.2","mouse_tracking_data":[{"x":632,"y":469,"t":2,"event":"mousemove"},{"x":572,"y":466,"t":5,"event":"mousemove"},{"x":549,"y":461,"t":26,"event":"mousemove"},{"x":541,"y":461,"t":43,"event":"mousemove"},{"x":540,"y":461,"t":59,"event":"mousemove"},{"x":540,"y":460,"t":99,"event":"mousemove"},{"x":540,"y":458,"t":163,"event":"mousemove"},{"x":541,"y":458,"t":210,"event":"mousemove"},{"x":545,"y":458,"t":218,"event":"mousemove"},{"x":548,"y":458,"t":227,"event":"mousemove"},{"x":550,"y":458,"t":237,"event":"mousemove"},{"x":552,"y":458,"t":245,"event":"mousemove"},{"x":553,"y":458,"t":249,"event":"mousemove"},{"x":555,"y":458,"t":256,"event":"mousemove"},{"x":557,"y":458,"t":264,"event":"mousemove"},{"x":558,"y":458,"t":282,"event":"mousemove"},{"x":560,"y":458,"t":628,"event":"mousemove"},{"x":562,"y":458,"t":830,"event":"mousemove"},{"x":562,"y":464,"t":1875,"event":"mousemove"},{"x":562,"y":470,"t":1877,"event":"mousemove"},{"x":547,"y":517,"t":1893,"event":"mousemove"},{"x":528,"y":546,"t":1910,"event":"mousemove"},{"x":503,"y":587,"t":1926,"event":"mousemove"},{"x":502,"y":589,"t":2040,"event":"mousemove"},{"x":500,"y":591,"t":2050,"event":"mousemove"},{"x":498,"y":593,"t":2059,"event":"mousemove"},{"x":496,"y":593,"t":2186,"event":"mousemove"},{"x":495,"y":593,"t":2258,"event":"mousemove"},{"x":493,"y":593,"t":2406,"event":"mousemove"},{"x":491,"y":593,"t":2461,"event":"mousemove"},{"x":490,"y":593,"t":2497,"event":"mousemove"},{"x":488,"y":593,"t":2515,"event":"mousemove"},{"x":486,"y":593,"t":2518,"event":"mousemove"},{"x":483,"y":594,"t":2524,"event":"mousemove"},{"x":483,"y":596,"t":2529,"event":"mousemove"},{"x":476,"y":598,"t":2533,"event":"mousemove"},{"x":471,"y":600,"t":2535,"event":"mousemove"},{"x":456,"y":609,"t":2550,"event":"mousemove"},{"x":436,"y":618,"t":2567,"event":"mousemove"},{"x":421,"y":624,"t":2583,"event":"mousemove"},{"x":410,"y":625,"t":2600,"event":"mousemove"},{"x":405,"y":627,"t":2616,"event":"mousemove"},{"x":403,"y":627,"t":2633,"event":"mousemove"},{"x":402,"y":627,"t":2650,"event":"mousemove"},{"x":400,"y":627,"t":2667,"event":"mousemove"}],"mouse_tracking_targets":{},"correct":true},{"rt":943,"stimulus":"<p>How confident are you about your choice ? (click on the bar)</p>","slider_start":50,"response":100,"trial_type":"html-slider-response","trial_index":45,"time_elapsed":200937,"internal_node_id":"0.0-13.0-2.2"},{"rt":null,"stimulus":"\n        <div id='jspsych-image' style='position: relative; width: min(80vw, 80vh); height: min(80vw, 80vh);'>\n                \n                <div style='position: absolute; top: 40%; left: 30%; bottom: 40%; right: 30%;'><h1 style='font-size: 60px; color: green;'>Correct!</h1></div>\n                \n                <div class='jspsych-image' id='jspsych-image-0' data-choice='0' style='top: 0;     left: 0;'><img style=\"width: 100%; height: 100%;\" src='../static/human_exp_images/task_flip/02_1.png' class=''></img></div>\n                <div class='jspsych-image' id='jspsych-image-1' data-choice='1' style='top: 0;     right: 0;'><img style=\"width: 100%; height: 100%;\" src='../static/human_exp_images/task_flip/02_0.png' class=''></img></div>\n                <div class='jspsych-image' id='jspsych-image-2' data-choice='2' style='bottom: 0;  left: 0;'><img style=\"width: 100%; height: 100%;\" src='../static/human_exp_images/task_flip/02_3.png' class='correct-choice'></img></div>\n                <div class='jspsych-image' id='jspsych-image-3' data-choice='3' style='bottom: 0;  right: 0;'><img style=\"width: 100%; height: 100%;\" src='../static/human_exp_images/task_flip/02_2.png' class=''></img></div>\n\n        </div>","response":null,"trial_type":"html-keyboard-response","trial_index":46,"time_elapsed":202439,"internal_node_id":"0.0-13.0-3.2"},{"rt":3654,"response":{"Q0":"l;m;lmlk"},"trial_type":"survey-text","trial_index":47,"time_elapsed":206097,"internal_node_id":"0.0-14.0"},{"rt":null,"stimulus":"<h1 style='font-size: 60px'>Block End</h1>","response":null,"trial_type":"html-keyboard-response","trial_index":48,"time_elapsed":206599,"internal_node_id":"0.0-15.0"},{"success":true,"timeout":false,"failed_images":[],"failed_audio":[],"failed_video":[],"trial_type":"preload","trial_index":49,"time_elapsed":206647,"internal_node_id":"0.0-16.0"},{"rt":19883,"stimulus":"<h1 style='font-size: 60px'>New Rule!</h1> <p>Press any key to begin.</p>","response":" ","trial_type":"html-keyboard-response","trial_index":50,"time_elapsed":226531,"internal_node_id":"0.0-17.0"},{"rt":null,"trial_type":"image-click","trial_index":51,"time_elapsed":226538,"internal_node_id":"0.0-18.0-0.0"},{"rt":2510,"response":3,"all_choices":["../static/human_exp_images/task_flip_color_1/00_2.png","../static/human_exp_images/task_flip_color_1/00_1.png","../static/human_exp_images/task_flip_color_1/00_0.png","../static/human_exp_images/task_flip_color_1/00_3.png"],"task":"response","correct_response":3,"shuffled_array":[2,1,0,3],"catch_trial":false,"trial_type":"image-click","trial_index":52,"time_elapsed":229053,"internal_node_id":"0.0-18.0-1.0","mouse_tracking_data":[{"x":630,"y":501,"t":1884,"event":"mousemove"},{"x":632,"y":501,"t":1957,"event":"mousemove"},{"x":633,"y":501,"t":1958,"event":"mousemove"},{"x":645,"y":501,"t":1974,"event":"mousemove"},{"x":656,"y":512,"t":1991,"event":"mousemove"},{"x":682,"y":537,"t":2007,"event":"mousemove"},{"x":707,"y":565,"t":2025,"event":"mousemove"},{"x":726,"y":588,"t":2041,"event":"mousemove"},{"x":746,"y":607,"t":2057,"event":"mousemove"},{"x":759,"y":617,"t":2074,"event":"mousemove"},{"x":769,"y":627,"t":2090,"event":"mousemove"},{"x":774,"y":633,"t":2107,"event":"mousemove"},{"x":783,"y":639,"t":2123,"event":"mousemove"},{"x":791,"y":645,"t":2141,"event":"mousemove"},{"x":798,"y":648,"t":2158,"event":"mousemove"},{"x":801,"y":651,"t":2174,"event":"mousemove"},{"x":803,"y":653,"t":2191,"event":"mousemove"}],"mouse_tracking_targets":{},"correct":true},{"rt":1307,"stimulus":"<p>How confident are you about your choice ? (click on the bar)</p>","slider_start":50,"response":92,"trial_type":"html-slider-response","trial_index":53,"time_elapsed":230360,"internal_node_id":"0.0-18.0-2.0"},{"rt":null,"stimulus":"\n        <div id='jspsych-image' style='position: relative; width: min(80vw, 80vh); height: min(80vw, 80vh);'>\n                \n                <div style='position: absolute; top: 40%; left: 30%; bottom: 40%; right: 30%;'><h1 style='font-size: 60px; color: green;'>Correct!</h1></div>\n                \n                <div class='jspsych-image' id='jspsych-image-0' data-choice='0' style='top: 0;     left: 0;'><img style=\"width: 100%; height: 100%;\" src='../static/human_exp_images/task_flip_color_1/00_2.png' class=''></img></div>\n                <div class='jspsych-image' id='jspsych-image-1' data-choice='1' style='top: 0;     right: 0;'><img style=\"width: 100%; height: 100%;\" src='../static/human_exp_images/task_flip_color_1/00_1.png' class=''></img></div>\n                <div class='jspsych-image' id='jspsych-image-2' data-choice='2' style='bottom: 0;  left: 0;'><img style=\"width: 100%; height: 100%;\" src='../static/human_exp_images/task_flip_color_1/00_0.png' class=''></img></div>\n                <div class='jspsych-image' id='jspsych-image-3' data-choice='3' style='bottom: 0;  right: 0;'><img style=\"width: 100%; height: 100%;\" src='../static/human_exp_images/task_flip_color_1/00_3.png' class='correct-choice'></img></div>\n\n        </div>","response":null,"trial_type":"html-keyboard-response","trial_index":54,"time_elapsed":231864,"internal_node_id":"0.0-18.0-3.0"},{"rt":null,"trial_type":"image-click","trial_index":55,"time_elapsed":232377,"internal_node_id":"0.0-18.0-0.1"},{"rt":712,"response":1,"all_choices":["../static/human_exp_images/task_flip_color_1/01_0.png","../static/human_exp_images/task_flip_color_1/01_2.png","../static/human_exp_images/task_flip_color_1/01_3.png","../static/human_exp_images/task_flip_color_1/01_1.png"],"task":"response","correct_response":2,"shuffled_array":[0,2,3,1],"catch_trial":false,"trial_type":"image-click","trial_index":56,"time_elapsed":233099,"internal_node_id":"0.0-18.0-1.1","mouse_tracking_data":[{"x":675,"y":471,"t":2,"event":"mousemove"},{"x":674,"y":471,"t":6,"event":"mousemove"},{"x":670,"y":471,"t":23,"event":"mousemove"},{"x":669,"y":471,"t":38,"event":"mousemove"},{"x":667,"y":471,"t":55,"event":"mousemove"},{"x":665,"y":471,"t":72,"event":"mousemove"},{"x":664,"y":471,"t":89,"event":"mousemove"},{"x":664,"y":469,"t":318,"event":"mousemove"},{"x":664,"y":467,"t":337,"event":"mousemove"},{"x":664,"y":465,"t":356,"event":"mousemove"},{"x":664,"y":464,"t":363,"event":"mousemove"},{"x":664,"y":462,"t":371,"event":"mousemove"},{"x":664,"y":459,"t":382,"event":"mousemove"},{"x":664,"y":457,"t":384,"event":"mousemove"},{"x":664,"y":448,"t":401,"event":"mousemove"},{"x":664,"y":441,"t":418,"event":"mousemove"},{"x":664,"y":431,"t":433,"event":"mousemove"},{"x":664,"y":423,"t":451,"event":"mousemove"},{"x":664,"y":414,"t":467,"event":"mousemove"},{"x":669,"y":404,"t":484,"event":"mousemove"},{"x":685,"y":384,"t":501,"event":"mousemove"},{"x":696,"y":373,"t":518,"event":"mousemove"},{"x":718,"y":353,"t":535,"event":"mousemove"},{"x":746,"y":336,"t":551,"event":"mousemove"},{"x":762,"y":327,"t":568,"event":"mousemove"},{"x":804,"y":303,"t":584,"event":"mousemove"},{"x":818,"y":294,"t":601,"event":"mousemove"},{"x":825,"y":291,"t":617,"event":"mousemove"},{"x":829,"y":289,"t":634,"event":"mousemove"}],"mouse_tracking_targets":{},"correct":false},{"rt":972,"stimulus":"<p>How confident are you about your choice ? (click on the bar)</p>","slider_start":50,"response":85,"trial_type":"html-slider-response","trial_index":57,"time_elapsed":234073,"internal_node_id":"0.0-18.0-2.1"},{"rt":null,"stimulus":"\n        <div id='jspsych-image' style='position: relative; width: min(80vw, 80vh); height: min(80vw, 80vh);'>\n                \n                <div style='position: absolute; top: 40%; left: 30%; bottom: 40%; right: 30%;'><h1 style='font-size: 60px; color: red'>Wrong</h1></div>\n                \n                <div class='jspsych-image' id='jspsych-image-0' data-choice='0' style='top: 0;     left: 0;'><img style=\"width: 100%; height: 100%;\" src='../static/human_exp_images/task_flip_color_1/01_0.png' class=''></img></div>\n                <div class='jspsych-image' id='jspsych-image-1' data-choice='1' style='top: 0;     right: 0;'><img style=\"width: 100%; height: 100%;\" src='../static/human_exp_images/task_flip_color_1/01_2.png' class='wrong-choice'></img></div>\n                <div class='jspsych-image' id='jspsych-image-2' data-choice='2' style='bottom: 0;  left: 0;'><img style=\"width: 100%; height: 100%;\" src='../static/human_exp_images/task_flip_color_1/01_3.png' class='correct-choice'></img></div>\n                <div class='jspsych-image' id='jspsych-image-3' data-choice='3' style='bottom: 0;  right: 0;'><img style=\"width: 100%; height: 100%;\" src='../static/human_exp_images/task_flip_color_1/01_1.png' class=''></img></div>\n\n        </div>","response":null,"trial_type":"html-keyboard-response","trial_index":58,"time_elapsed":236574,"internal_node_id":"0.0-18.0-3.1"},{"rt":null,"trial_type":"image-click","trial_index":59,"time_elapsed":236584,"internal_node_id":"0.0-18.0-0.2"},{"rt":753,"response":3,"all_choices":["../static/human_exp_images/task_flip_color_1/02_2.png","../static/human_exp_images/task_flip_color_1/02_0.png","../static/human_exp_images/task_flip_color_1/02_3.png","../static/human_exp_images/task_flip_color_1/02_1.png"],"task":"response","correct_response":2,"shuffled_array":[2,0,3,1],"catch_trial":false,"trial_type":"image-click","trial_index":60,"time_elapsed":237346,"internal_node_id":"0.0-18.0-1.2","mouse_tracking_data":[{"x":656,"y":501,"t":7,"event":"mousemove"},{"x":644,"y":508,"t":22,"event":"mousemove"},{"x":639,"y":511,"t":39,"event":"mousemove"},{"x":634,"y":515,"t":56,"event":"mousemove"},{"x":630,"y":516,"t":73,"event":"mousemove"},{"x":629,"y":518,"t":90,"event":"mousemove"},{"x":627,"y":518,"t":106,"event":"mousemove"},{"x":629,"y":518,"t":406,"event":"mousemove"},{"x":630,"y":518,"t":409,"event":"mousemove"},{"x":639,"y":518,"t":424,"event":"mousemove"},{"x":649,"y":523,"t":441,"event":"mousemove"},{"x":658,"y":533,"t":458,"event":"mousemove"},{"x":676,"y":546,"t":475,"event":"mousemove"},{"x":691,"y":556,"t":490,"event":"mousemove"},{"x":711,"y":571,"t":508,"event":"mousemove"},{"x":717,"y":574,"t":525,"event":"mousemove"},{"x":756,"y":603,"t":541,"event":"mousemove"},{"x":768,"y":612,"t":558,"event":"mousemove"},{"x":778,"y":619,"t":574,"event":"mousemove"},{"x":785,"y":624,"t":592,"event":"mousemove"},{"x":790,"y":629,"t":608,"event":"mousemove"},{"x":792,"y":631,"t":625,"event":"mousemove"},{"x":793,"y":631,"t":641,"event":"mousemove"}],"mouse_tracking_targets":{},"correct":false},{"rt":1540,"stimulus":"<p>How confident are you about your choice ? (click on the bar)</p>","slider_start":50,"response":78,"trial_type":"html-slider-response","trial_index":61,"time_elapsed":238888,"internal_node_id":"0.0-18.0-2.2"},{"rt":null,"stimulus":"\n        <div id='jspsych-image' style='position: relative; width: min(80vw, 80vh); height: min(80vw, 80vh);'>\n                \n                <div style='position: absolute; top: 40%; left: 30%; bottom: 40%; right: 30%;'><h1 style='font-size: 60px; color: red'>Wrong</h1></div>\n                \n                <div class='jspsych-image' id='jspsych-image-0' data-choice='0' style='top: 0;     left: 0;'><img style=\"width: 100%; height: 100%;\" src='../static/human_exp_images/task_flip_color_1/02_2.png' class=''></img></div>\n                <div class='jspsych-image' id='jspsych-image-1' data-choice='1' style='top: 0;     right: 0;'><img style=\"width: 100%; height: 100%;\" src='../static/human_exp_images/task_flip_color_1/02_0.png' class=''></img></div>\n                <div class='jspsych-image' id='jspsych-image-2' data-choice='2' style='bottom: 0;  left: 0;'><img style=\"width: 100%; height: 100%;\" src='../static/human_exp_images/task_flip_color_1/02_3.png' class='correct-choice'></img></div>\n                <div class='jspsych-image' id='jspsych-image-3' data-choice='3' style='bottom: 0;  right: 0;'><img style=\"width: 100%; height: 100%;\" src='../static/human_exp_images/task_flip_color_1/02_1.png' class='wrong-choice'></img></div>\n\n        </div>","response":null,"trial_type":"html-keyboard-response","trial_index":62,"time_elapsed":241391,"internal_node_id":"0.0-18.0-3.2"},{"rt":2706,"response":{"Q0":"jklkkl"},"trial_type":"survey-text","trial_index":63,"time_elapsed":244104,"internal_node_id":"0.0-19.0"},{"rt":null,"stimulus":"<h1 style='font-size: 60px'>Block End</h1>","response":null,"trial_type":"html-keyboard-response","trial_index":64,"time_elapsed":244607,"internal_node_id":"0.0-20.0"},{"success":true,"timeout":false,"failed_images":[],"failed_audio":[],"failed_video":[],"trial_type":"preload","trial_index":65,"time_elapsed":244655,"internal_node_id":"0.0-21.0"}]