[{"success":true,"timeout":false,"failed_images":[],"failed_audio":[],"failed_video":[],"trial_type":"preload","trial_index":0,"time_elapsed":11,"internal_node_id":"0.0-0.0"},{"rt":1060,"stimulus":"<p style='font-size: 40px'>Welcome to the experiment.</p><p style='font-size: 30px'>Press any key to begin.</p>","response":" ","trial_type":"html-keyboard-response","trial_index":1,"time_elapsed":1071,"internal_node_id":"0.0-1.0"},{"rt":876,"stimulus":"\n    <p>In this experiment, 4 images will appear on the screen. 3 out of 4 images were generated with a certain rule while one image (the odd one out) does not respect this rule. Select the odd one out by clicking on the image.</p>\n    <p>Following your choice, you will be asked to rate how confident you were about your choice on a scale from 1 to 100. Then, you will receive feedback on the trial.</p>\n    <p>For each rule you will perform 20 trials. You will be notified at each rule change. </p>\n    <p> Press any button to continue </p>\n    <div style='margin: auto; position: relative; width: 400px; height: 400px;'>\n        <div style='position: absolute; top: 0;     left: 0; '><img src='../static/img/square.png'></img></div>\n        <div style='position: absolute; top: 0;     right: 0;'><img src='../static/img/square.png'></img></div>\n        <div style='position: absolute; bottom: 0;  left: 0; '><img src='../static/img/square.png'></img></div>\n        <div style='position: absolute; bottom: 0;  right: 0;'><img src='../static/img/square.png'></img></div>\n    </div>\n","response":" ","trial_type":"html-keyboard-response","trial_index":2,"time_elapsed":1950,"internal_node_id":"0.0-2.0"},{"rt":848,"stimulus":"<h1 style='font-size: 60px'>New Rule!</h1> <p>Press any key to begin.</p>","response":" ","trial_type":"html-keyboard-response","trial_index":3,"time_elapsed":4801,"internal_node_id":"0.0-3.0"},{"rt":1078,"response":1,"all_choices":["../static/human_exp_images/task_shape/00_2.png","../static/human_exp_images/task_shape/00_1.png","../static/human_exp_images/task_shape/00_0.png","../static/human_exp_images/task_shape/00_3.png"],"task":"response","correct_response":3,"shuffled_array":[2,1,0,3],"trial_type":"image-click","trial_index":4,"time_elapsed":5880,"internal_node_id":"0.0-4.0-0.0","mouse_tracking_data":[{"x":907,"y":537,"t":655,"event":"mousemove"},{"x":907,"y":532,"t":656,"event":"mousemove"},{"x":907,"y":494,"t":672,"event":"mousemove"},{"x":938,"y":418,"t":688,"event":"mousemove"},{"x":965,"y":345,"t":705,"event":"mousemove"},{"x":990,"y":281,"t":722,"event":"mousemove"},{"x":1009,"y":232,"t":739,"event":"mousemove"},{"x":1019,"y":209,"t":755,"event":"mousemove"},{"x":1023,"y":201,"t":772,"event":"mousemove"},{"x":1026,"y":195,"t":788,"event":"mousemove"},{"x":1026,"y":194,"t":806,"event":"mousemove"},{"x":1026,"y":193,"t":823,"event":"mousemove"},{"x":1029,"y":183,"t":839,"event":"mousemove"},{"x":1034,"y":172,"t":856,"event":"mousemove"},{"x":1039,"y":160,"t":872,"event":"mousemove"},{"x":1043,"y":152,"t":889,"event":"mousemove"},{"x":1046,"y":147,"t":905,"event":"mousemove"},{"x":1051,"y":142,"t":923,"event":"mousemove"},{"x":1054,"y":141,"t":938,"event":"mousemove"},{"x":1059,"y":139,"t":955,"event":"mousemove"},{"x":1062,"y":137,"t":973,"event":"mousemove"},{"x":1066,"y":137,"t":989,"event":"mousemove"}],"mouse_tracking_targets":{},"correct":false},{"rt":1515,"stimulus":"<p>How confident are you about your choice ?</p>","slider_start":50,"response":50,"trial_type":"html-slider-response","trial_index":5,"time_elapsed":7398,"internal_node_id":"0.0-4.0-1.0"},{"rt":null,"stimulus":"\n        <div id='jspsych-image' style='position: relative; width: min(80vw, 80vh); height: min(80vw, 80vh);'>\n                \n                <div style='position: absolute; top: 40%; left: 30%; bottom: 40%; right: 30%;'><h1 style='font-size: 60px; color: red'>Wrong</h1></div>\n                \n                <div class='jspsych-image' id='jspsych-image-0' data-choice='0' style='top: 0;     left: 0;'><img style=\"max-width: 100%; max-height: 100%;\" src='../static/human_exp_images/task_shape/00_2.png' class=''></img></div>\n                <div class='jspsych-image' id='jspsych-image-1' data-choice='1' style='top: 0;     right: 0;'><img style=\"max-width: 100%; max-height: 100%;\" src='../static/human_exp_images/task_shape/00_1.png' class='wrong-choice'></img></div>\n                <div class='jspsych-image' id='jspsych-image-2' data-choice='2' style='bottom: 0;  left: 0;'><img style=\"max-width: 100%; max-height: 100%;\" src='../static/human_exp_images/task_shape/00_0.png' class=''></img></div>\n                <div class='jspsych-image' id='jspsych-image-3' data-choice='3' style='bottom: 0;  right: 0;'><img style=\"max-width: 100%; max-height: 100%;\" src='../static/human_exp_images/task_shape/00_3.png' class='correct-choice'></img></div>\n\n        </div>","response":null,"trial_type":"html-keyboard-response","trial_index":6,"time_elapsed":9903,"internal_node_id":"0.0-4.0-2.0"},{"rt":1584,"stimulus":"<p>You responded correctly on 0% of the trials.</p>\n    <p>Your average response time was NaNms.</p>\n    <p>Press any key to complete the experiment. Thank you!</p>","response":" ","trial_type":"html-keyboard-response","trial_index":7,"time_elapsed":11490,"internal_node_id":"0.0-5.0","interactions":"[{\"event\":\"focus\",\"trial\":0,\"time\":0}]"}]