[{"success":true,"timeout":false,"failed_images":[],"failed_audio":[],"failed_video":[],"trial_type":"preload","trial_index":0,"time_elapsed":2070,"internal_node_id":"0.0-0.0"},{"rt":824,"stimulus":"<p style='font-size: 40px'>Welcome to the experiment.</p><p style='font-size: 30px'>Press any key to begin.</p>","response":" ","trial_type":"html-keyboard-response","trial_index":1,"time_elapsed":2894,"internal_node_id":"0.0-1.0"},{"rt":559,"stimulus":"\n    <p>In this experiment, 4 images will appear on the screen. 3 out of 4 images were generated with a certain rule while one image (the odd one out) does not respect this rule.</p>\n    <p>Select the odd one out by clicking on the image.</p>\n    <p>Following your choice, you will be asked to rate how confident you were about your choice on a scale from 1 to 100. Then, you will receive feedback on the trial.</p>\n    <p>For each rule you will perform 21 trials. You will be notified at each rule change.</p>\n    <p>The following 3 trials will allow you to get familiar with the odd-one-out task. The experiment starts after this practice session.</p>\n    \n    <p>Press any button to continue</p>\n    <div style='margin: auto; position: relative; width: 400px; height: 400px;'>\n        <div style='position: absolute; top: 0;     left: 0; '><img src='../static/img/square.png'></img></div>\n        <div style='position: absolute; top: 0;     right: 0;'><img src='../static/img/square.png'></img></div>\n        <div style='position: absolute; bottom: 0;  left: 0; '><img src='../static/img/square.png'></img></div>\n        <div style='position: absolute; bottom: 0;  right: 0;'><img src='../static/img/square.png'></img></div>\n    </div>\n","response":" ","trial_type":"html-keyboard-response","trial_index":2,"time_elapsed":3458,"internal_node_id":"0.0-2.0"},{"rt":null,"trial_type":"image-click","trial_index":3,"time_elapsed":5465,"internal_node_id":"0.0-3.0-0.0"},{"rt":969,"response":0,"all_choices":["../static/human_exp_images/practice_img/00_3.png","../static/human_exp_images/practice_img/00_0.png","../static/human_exp_images/practice_img/00_1.png","../static/human_exp_images/practice_img/00_2.png"],"task":"response","correct_response":0,"shuffled_array":[3,0,1,2],"catch_trial":false,"trial_type":"image-click","trial_index":4,"time_elapsed":6435,"internal_node_id":"0.0-3.0-1.0","mouse_tracking_data":[{"x":507,"y":476,"t":326,"event":"mousemove"},{"x":504,"y":476,"t":495,"event":"mousemove"},{"x":501,"y":476,"t":502,"event":"mousemove"},{"x":499,"y":476,"t":506,"event":"mousemove"},{"x":496,"y":473,"t":511,"event":"mousemove"},{"x":491,"y":469,"t":512,"event":"mousemove"},{"x":483,"y":457,"t":520,"event":"mousemove"},{"x":478,"y":452,"t":522,"event":"mousemove"},{"x":468,"y":445,"t":529,"event":"mousemove"},{"x":463,"y":437,"t":532,"event":"mousemove"},{"x":452,"y":427,"t":539,"event":"mousemove"},{"x":450,"y":422,"t":542,"event":"mousemove"},{"x":443,"y":415,"t":548,"event":"mousemove"},{"x":438,"y":410,"t":554,"event":"mousemove"},{"x":431,"y":403,"t":558,"event":"mousemove"},{"x":428,"y":398,"t":559,"event":"mousemove"},{"x":416,"y":386,"t":576,"event":"mousemove"},{"x":398,"y":368,"t":593,"event":"mousemove"},{"x":379,"y":353,"t":609,"event":"mousemove"},{"x":362,"y":341,"t":626,"event":"mousemove"},{"x":343,"y":334,"t":642,"event":"mousemove"},{"x":326,"y":325,"t":659,"event":"mousemove"},{"x":318,"y":318,"t":676,"event":"mousemove"},{"x":308,"y":310,"t":693,"event":"mousemove"},{"x":299,"y":303,"t":709,"event":"mousemove"},{"x":294,"y":298,"t":726,"event":"mousemove"},{"x":292,"y":294,"t":743,"event":"mousemove"},{"x":292,"y":293,"t":759,"event":"mousemove"},{"x":290,"y":293,"t":814,"event":"mousemove"},{"x":290,"y":291,"t":833,"event":"mousemove"},{"x":290,"y":289,"t":868,"event":"mousemove"}],"mouse_tracking_targets":{},"correct":true},{"rt":20420,"stimulus":"<p>How confident are you about your choice ?</p>","slider_start":50,"response":99,"trial_type":"html-slider-response","trial_index":5,"time_elapsed":26858,"internal_node_id":"0.0-3.0-2.0"},{"rt":null,"stimulus":"\n        <div id='jspsych-image' style='position: relative; width: min(80vw, 80vh); height: min(80vw, 80vh);'>\n                \n                <div style='position: absolute; top: 40%; left: 30%; bottom: 40%; right: 30%;'><h1 style='font-size: 60px; color: green;'>Correct!</h1></div>\n                \n                <div class='jspsych-image' id='jspsych-image-0' data-choice='0' style='top: 0;     left: 0;'><img style=\"width: 100%; height: 100%;\" src='../static/human_exp_images/practice_img/00_3.png' class='correct-choice'></img></div>\n                <div class='jspsych-image' id='jspsych-image-1' data-choice='1' style='top: 0;     right: 0;'><img style=\"width: 100%; height: 100%;\" src='../static/human_exp_images/practice_img/00_0.png' class=''></img></div>\n                <div class='jspsych-image' id='jspsych-image-2' data-choice='2' style='bottom: 0;  left: 0;'><img style=\"width: 100%; height: 100%;\" src='../static/human_exp_images/practice_img/00_1.png' class=''></img></div>\n                <div class='jspsych-image' id='jspsych-image-3' data-choice='3' style='bottom: 0;  right: 0;'><img style=\"width: 100%; height: 100%;\" src='../static/human_exp_images/practice_img/00_2.png' class=''></img></div>\n\n        </div>","response":null,"trial_type":"html-keyboard-response","trial_index":6,"time_elapsed":28362,"internal_node_id":"0.0-3.0-3.0"},{"rt":null,"trial_type":"image-click","trial_index":7,"time_elapsed":33629,"internal_node_id":"0.0-3.0-0.1"},{"rt":1249,"response":1,"all_choices":["../static/human_exp_images/practice_img/01_0.png","../static/human_exp_images/practice_img/01_3.png","../static/human_exp_images/practice_img/01_2.png","../static/human_exp_images/practice_img/01_1.png"],"task":"response","correct_response":1,"shuffled_array":[0,3,2,1],"catch_trial":false,"trial_type":"image-click","trial_index":8,"time_elapsed":34878,"internal_node_id":"0.0-3.0-1.1","mouse_tracking_data":[{"x":1051,"y":414,"t":1,"event":"mousemove"},{"x":1044,"y":415,"t":16,"event":"mousemove"},{"x":1034,"y":417,"t":32,"event":"mousemove"},{"x":1026,"y":421,"t":48,"event":"mousemove"},{"x":1015,"y":422,"t":66,"event":"mousemove"},{"x":1009,"y":426,"t":83,"event":"mousemove"},{"x":997,"y":433,"t":99,"event":"mousemove"},{"x":986,"y":436,"t":116,"event":"mousemove"},{"x":980,"y":439,"t":132,"event":"mousemove"},{"x":976,"y":441,"t":149,"event":"mousemove"},{"x":974,"y":441,"t":167,"event":"mousemove"},{"x":973,"y":441,"t":183,"event":"mousemove"},{"x":974,"y":438,"t":786,"event":"mousemove"},{"x":978,"y":433,"t":793,"event":"mousemove"},{"x":979,"y":433,"t":794,"event":"mousemove"},{"x":984,"y":424,"t":810,"event":"mousemove"},{"x":998,"y":407,"t":827,"event":"mousemove"},{"x":1024,"y":384,"t":843,"event":"mousemove"},{"x":1042,"y":366,"t":860,"event":"mousemove"},{"x":1064,"y":346,"t":877,"event":"mousemove"},{"x":1083,"y":335,"t":895,"event":"mousemove"},{"x":1110,"y":316,"t":911,"event":"mousemove"},{"x":1132,"y":301,"t":927,"event":"mousemove"},{"x":1151,"y":290,"t":944,"event":"mousemove"},{"x":1161,"y":283,"t":961,"event":"mousemove"},{"x":1170,"y":278,"t":978,"event":"mousemove"},{"x":1175,"y":274,"t":994,"event":"mousemove"},{"x":1177,"y":273,"t":1011,"event":"mousemove"},{"x":1178,"y":273,"t":1040,"event":"mousemove"},{"x":1178,"y":271,"t":1055,"event":"mousemove"},{"x":1180,"y":269,"t":1060,"event":"mousemove"},{"x":1185,"y":262,"t":1078,"event":"mousemove"},{"x":1190,"y":257,"t":1093,"event":"mousemove"},{"x":1192,"y":254,"t":1110,"event":"mousemove"}],"mouse_tracking_targets":{},"correct":true},{"rt":2704,"stimulus":"<p>How confident are you about your choice ?</p>","slider_start":50,"response":90,"trial_type":"html-slider-response","trial_index":9,"time_elapsed":37583,"internal_node_id":"0.0-3.0-2.1"},{"rt":null,"stimulus":"\n        <div id='jspsych-image' style='position: relative; width: min(80vw, 80vh); height: min(80vw, 80vh);'>\n                \n                <div style='position: absolute; top: 40%; left: 30%; bottom: 40%; right: 30%;'><h1 style='font-size: 60px; color: green;'>Correct!</h1></div>\n                \n                <div class='jspsych-image' id='jspsych-image-0' data-choice='0' style='top: 0;     left: 0;'><img style=\"width: 100%; height: 100%;\" src='../static/human_exp_images/practice_img/01_0.png' class=''></img></div>\n                <div class='jspsych-image' id='jspsych-image-1' data-choice='1' style='top: 0;     right: 0;'><img style=\"width: 100%; height: 100%;\" src='../static/human_exp_images/practice_img/01_3.png' class='correct-choice'></img></div>\n                <div class='jspsych-image' id='jspsych-image-2' data-choice='2' style='bottom: 0;  left: 0;'><img style=\"width: 100%; height: 100%;\" src='../static/human_exp_images/practice_img/01_2.png' class=''></img></div>\n                <div class='jspsych-image' id='jspsych-image-3' data-choice='3' style='bottom: 0;  right: 0;'><img style=\"width: 100%; height: 100%;\" src='../static/human_exp_images/practice_img/01_1.png' class=''></img></div>\n\n        </div>","response":null,"trial_type":"html-keyboard-response","trial_index":10,"time_elapsed":39087,"internal_node_id":"0.0-3.0-3.1"},{"rt":null,"trial_type":"image-click","trial_index":11,"time_elapsed":39755,"internal_node_id":"0.0-3.0-0.2"},{"rt":1341,"response":3,"all_choices":["../static/human_exp_images/practice_img/02_0.png","../static/human_exp_images/practice_img/02_2.png","../static/human_exp_images/practice_img/02_1.png","../static/human_exp_images/practice_img/02_3.png"],"task":"response","correct_response":3,"shuffled_array":[0,2,1,3],"catch_trial":false,"trial_type":"image-click","trial_index":12,"time_elapsed":41100,"internal_node_id":"0.0-3.0-1.2","mouse_tracking_data":[{"x":1050,"y":472,"t":2,"event":"mousemove"},{"x":1036,"y":472,"t":12,"event":"mousemove"},{"x":1026,"y":471,"t":29,"event":"mousemove"},{"x":1014,"y":471,"t":46,"event":"mousemove"},{"x":1005,"y":471,"t":62,"event":"mousemove"},{"x":999,"y":471,"t":79,"event":"mousemove"},{"x":990,"y":471,"t":96,"event":"mousemove"},{"x":985,"y":471,"t":113,"event":"mousemove"},{"x":982,"y":471,"t":130,"event":"mousemove"},{"x":980,"y":471,"t":446,"event":"mousemove"},{"x":982,"y":471,"t":655,"event":"mousemove"},{"x":988,"y":471,"t":656,"event":"mousemove"},{"x":1021,"y":487,"t":673,"event":"mousemove"},{"x":1043,"y":500,"t":690,"event":"mousemove"},{"x":1061,"y":519,"t":706,"event":"mousemove"},{"x":1078,"y":532,"t":723,"event":"mousemove"},{"x":1094,"y":543,"t":754,"event":"mousemove"},{"x":1117,"y":557,"t":756,"event":"mousemove"},{"x":1129,"y":566,"t":773,"event":"mousemove"},{"x":1134,"y":571,"t":789,"event":"mousemove"},{"x":1140,"y":576,"t":806,"event":"mousemove"},{"x":1143,"y":578,"t":823,"event":"mousemove"}],"mouse_tracking_targets":{},"correct":true},{"rt":1504,"stimulus":"<p>How confident are you about your choice ?</p>","slider_start":50,"response":8,"trial_type":"html-slider-response","trial_index":13,"time_elapsed":42605,"internal_node_id":"0.0-3.0-2.2"},{"rt":null,"stimulus":"\n        <div id='jspsych-image' style='position: relative; width: min(80vw, 80vh); height: min(80vw, 80vh);'>\n                \n                <div style='position: absolute; top: 40%; left: 30%; bottom: 40%; right: 30%;'><h1 style='font-size: 60px; color: green;'>Correct!</h1></div>\n                \n                <div class='jspsych-image' id='jspsych-image-0' data-choice='0' style='top: 0;     left: 0;'><img style=\"width: 100%; height: 100%;\" src='../static/human_exp_images/practice_img/02_0.png' class=''></img></div>\n                <div class='jspsych-image' id='jspsych-image-1' data-choice='1' style='top: 0;     right: 0;'><img style=\"width: 100%; height: 100%;\" src='../static/human_exp_images/practice_img/02_2.png' class=''></img></div>\n                <div class='jspsych-image' id='jspsych-image-2' data-choice='2' style='bottom: 0;  left: 0;'><img style=\"width: 100%; height: 100%;\" src='../static/human_exp_images/practice_img/02_1.png' class=''></img></div>\n                <div class='jspsych-image' id='jspsych-image-3' data-choice='3' style='bottom: 0;  right: 0;'><img style=\"width: 100%; height: 100%;\" src='../static/human_exp_images/practice_img/02_3.png' class='correct-choice'></img></div>\n\n        </div>","response":null,"trial_type":"html-keyboard-response","trial_index":14,"time_elapsed":44107,"internal_node_id":"0.0-3.0-3.2"},{"rt":1074,"stimulus":"<p style='font-size: 40px'>The practice session is over. The experiment begin now!</p> \n                <p>Please take pauses on only at the \"new rule\" pages.</p> \n                <p>Press any key to begin.</p>","response":" ","trial_type":"html-keyboard-response","trial_index":15,"time_elapsed":45182,"internal_node_id":"0.0-4.0"},{"rt":766,"stimulus":"<h1 style='font-size: 60px'>New Rule!</h1> <p>Press any key to begin.</p>","response":" ","trial_type":"html-keyboard-response","trial_index":16,"time_elapsed":45950,"internal_node_id":"0.0-5.0"},{"rt":null,"trial_type":"image-click","trial_index":17,"time_elapsed":46388,"internal_node_id":"0.0-6.0-0.0"},{"rt":983,"response":1,"all_choices":["../static/human_exp_images/task_size/00_2.png","../static/human_exp_images/task_size/00_3.png","../static/human_exp_images/task_size/00_1.png","../static/human_exp_images/task_size/00_0.png"],"task":"response","correct_response":1,"shuffled_array":[2,3,1,0],"catch_trial":false,"trial_type":"image-click","trial_index":18,"time_elapsed":47372,"internal_node_id":"0.0-6.0-1.0","mouse_tracking_data":[{"x":978,"y":542,"t":1,"event":"mousemove"},{"x":978,"y":504,"t":15,"event":"mousemove"},{"x":975,"y":470,"t":32,"event":"mousemove"},{"x":969,"y":443,"t":48,"event":"mousemove"},{"x":967,"y":436,"t":65,"event":"mousemove"},{"x":965,"y":432,"t":81,"event":"mousemove"},{"x":965,"y":427,"t":98,"event":"mousemove"},{"x":964,"y":420,"t":116,"event":"mousemove"},{"x":960,"y":417,"t":132,"event":"mousemove"},{"x":959,"y":417,"t":149,"event":"mousemove"},{"x":957,"y":417,"t":372,"event":"mousemove"},{"x":957,"y":420,"t":536,"event":"mousemove"},{"x":957,"y":422,"t":538,"event":"mousemove"},{"x":957,"y":429,"t":554,"event":"mousemove"},{"x":957,"y":434,"t":571,"event":"mousemove"},{"x":957,"y":438,"t":587,"event":"mousemove"},{"x":957,"y":439,"t":604,"event":"mousemove"},{"x":962,"y":439,"t":620,"event":"mousemove"},{"x":971,"y":439,"t":638,"event":"mousemove"},{"x":982,"y":428,"t":654,"event":"mousemove"},{"x":1011,"y":380,"t":670,"event":"mousemove"},{"x":1028,"y":352,"t":687,"event":"mousemove"},{"x":1049,"y":320,"t":704,"event":"mousemove"},{"x":1069,"y":303,"t":721,"event":"mousemove"},{"x":1081,"y":292,"t":737,"event":"mousemove"},{"x":1098,"y":280,"t":754,"event":"mousemove"},{"x":1112,"y":272,"t":771,"event":"mousemove"},{"x":1124,"y":265,"t":787,"event":"mousemove"},{"x":1138,"y":256,"t":804,"event":"mousemove"},{"x":1152,"y":248,"t":820,"event":"mousemove"},{"x":1162,"y":243,"t":838,"event":"mousemove"},{"x":1167,"y":239,"t":855,"event":"mousemove"},{"x":1169,"y":239,"t":871,"event":"mousemove"}],"mouse_tracking_targets":{},"correct":true},{"rt":1601,"stimulus":"<p>How confident are you about your choice ?</p>","slider_start":50,"response":93,"trial_type":"html-slider-response","trial_index":19,"time_elapsed":48974,"internal_node_id":"0.0-6.0-2.0"},{"rt":null,"stimulus":"\n        <div id='jspsych-image' style='position: relative; width: min(80vw, 80vh); height: min(80vw, 80vh);'>\n                \n                <div style='position: absolute; top: 40%; left: 30%; bottom: 40%; right: 30%;'><h1 style='font-size: 60px; color: green;'>Correct!</h1></div>\n                \n                <div class='jspsych-image' id='jspsych-image-0' data-choice='0' style='top: 0;     left: 0;'><img style=\"width: 100%; height: 100%;\" src='../static/human_exp_images/task_size/00_2.png' class=''></img></div>\n                <div class='jspsych-image' id='jspsych-image-1' data-choice='1' style='top: 0;     right: 0;'><img style=\"width: 100%; height: 100%;\" src='../static/human_exp_images/task_size/00_3.png' class='correct-choice'></img></div>\n                <div class='jspsych-image' id='jspsych-image-2' data-choice='2' style='bottom: 0;  left: 0;'><img style=\"width: 100%; height: 100%;\" src='../static/human_exp_images/task_size/00_1.png' class=''></img></div>\n                <div class='jspsych-image' id='jspsych-image-3' data-choice='3' style='bottom: 0;  right: 0;'><img style=\"width: 100%; height: 100%;\" src='../static/human_exp_images/task_size/00_0.png' class=''></img></div>\n\n        </div>","response":null,"trial_type":"html-keyboard-response","trial_index":20,"time_elapsed":50477,"internal_node_id":"0.0-6.0-3.0"},{"rt":null,"trial_type":"image-click","trial_index":21,"time_elapsed":50480,"internal_node_id":"0.0-6.0-0.1"},{"rt":2531,"response":2,"all_choices":["../static/human_exp_images/task_size/01_1.png","../static/human_exp_images/task_size/01_0.png","../static/human_exp_images/task_size/01_3.png","../static/human_exp_images/task_size/01_2.png"],"task":"response","correct_response":2,"shuffled_array":[1,0,3,2],"catch_trial":false,"trial_type":"image-click","trial_index":22,"time_elapsed":53013,"internal_node_id":"0.0-6.0-1.1","mouse_tracking_data":[{"x":1051,"y":514,"t":1473,"event":"mousemove"},{"x":1051,"y":516,"t":1569,"event":"mousemove"},{"x":1049,"y":516,"t":1899,"event":"mousemove"},{"x":1046,"y":516,"t":1902,"event":"mousemove"},{"x":1044,"y":516,"t":1903,"event":"mousemove"},{"x":1041,"y":516,"t":1919,"event":"mousemove"},{"x":1025,"y":516,"t":1936,"event":"mousemove"},{"x":1001,"y":520,"t":1953,"event":"mousemove"},{"x":979,"y":530,"t":1970,"event":"mousemove"},{"x":961,"y":545,"t":1985,"event":"mousemove"},{"x":946,"y":553,"t":2003,"event":"mousemove"},{"x":937,"y":563,"t":2021,"event":"mousemove"},{"x":924,"y":575,"t":2037,"event":"mousemove"},{"x":912,"y":586,"t":2053,"event":"mousemove"},{"x":902,"y":594,"t":2069,"event":"mousemove"},{"x":892,"y":604,"t":2087,"event":"mousemove"},{"x":883,"y":610,"t":2103,"event":"mousemove"},{"x":871,"y":615,"t":2119,"event":"mousemove"},{"x":866,"y":618,"t":2136,"event":"mousemove"},{"x":861,"y":620,"t":2153,"event":"mousemove"},{"x":859,"y":622,"t":2170,"event":"mousemove"},{"x":857,"y":622,"t":2186,"event":"mousemove"},{"x":856,"y":623,"t":2239,"event":"mousemove"},{"x":854,"y":623,"t":2241,"event":"mousemove"},{"x":849,"y":628,"t":2258,"event":"mousemove"},{"x":844,"y":632,"t":2275,"event":"mousemove"},{"x":837,"y":637,"t":2290,"event":"mousemove"},{"x":831,"y":639,"t":2307,"event":"mousemove"},{"x":829,"y":641,"t":2327,"event":"mousemove"},{"x":824,"y":644,"t":2340,"event":"mousemove"},{"x":814,"y":651,"t":2357,"event":"mousemove"},{"x":796,"y":661,"t":2374,"event":"mousemove"},{"x":788,"y":665,"t":2391,"event":"mousemove"},{"x":778,"y":671,"t":2408,"event":"mousemove"},{"x":773,"y":673,"t":2425,"event":"mousemove"},{"x":771,"y":673,"t":2440,"event":"mousemove"}],"mouse_tracking_targets":{},"correct":true},{"rt":1163,"stimulus":"<p>How confident are you about your choice ?</p>","slider_start":50,"response":92,"trial_type":"html-slider-response","trial_index":23,"time_elapsed":54177,"internal_node_id":"0.0-6.0-2.1"},{"rt":null,"stimulus":"\n        <div id='jspsych-image' style='position: relative; width: min(80vw, 80vh); height: min(80vw, 80vh);'>\n                \n                <div style='position: absolute; top: 40%; left: 30%; bottom: 40%; right: 30%;'><h1 style='font-size: 60px; color: green;'>Correct!</h1></div>\n                \n                <div class='jspsych-image' id='jspsych-image-0' data-choice='0' style='top: 0;     left: 0;'><img style=\"width: 100%; height: 100%;\" src='../static/human_exp_images/task_size/01_1.png' class=''></img></div>\n                <div class='jspsych-image' id='jspsych-image-1' data-choice='1' style='top: 0;     right: 0;'><img style=\"width: 100%; height: 100%;\" src='../static/human_exp_images/task_size/01_0.png' class=''></img></div>\n                <div class='jspsych-image' id='jspsych-image-2' data-choice='2' style='bottom: 0;  left: 0;'><img style=\"width: 100%; height: 100%;\" src='../static/human_exp_images/task_size/01_3.png' class='correct-choice'></img></div>\n                <div class='jspsych-image' id='jspsych-image-3' data-choice='3' style='bottom: 0;  right: 0;'><img style=\"width: 100%; height: 100%;\" src='../static/human_exp_images/task_size/01_2.png' class=''></img></div>\n\n        </div>","response":null,"trial_type":"html-keyboard-response","trial_index":24,"time_elapsed":55680,"internal_node_id":"0.0-6.0-3.1"},{"rt":null,"trial_type":"image-click","trial_index":25,"time_elapsed":55682,"internal_node_id":"0.0-6.0-0.2"},{"rt":1202,"response":1,"all_choices":["../static/human_exp_images/task_size/02_1.png","../static/human_exp_images/task_size/02_3.png","../static/human_exp_images/task_size/02_2.png","../static/human_exp_images/task_size/02_0.png"],"task":"response","correct_response":1,"shuffled_array":[1,3,2,0],"catch_trial":false,"trial_type":"image-click","trial_index":26,"time_elapsed":56886,"internal_node_id":"0.0-6.0-1.2","mouse_tracking_data":[{"x":988,"y":515,"t":523,"event":"mousemove"},{"x":988,"y":508,"t":713,"event":"mousemove"},{"x":988,"y":504,"t":717,"event":"mousemove"},{"x":988,"y":499,"t":722,"event":"mousemove"},{"x":988,"y":496,"t":727,"event":"mousemove"},{"x":992,"y":489,"t":730,"event":"mousemove"},{"x":995,"y":483,"t":732,"event":"mousemove"},{"x":1002,"y":471,"t":748,"event":"mousemove"},{"x":1013,"y":455,"t":765,"event":"mousemove"},{"x":1027,"y":440,"t":781,"event":"mousemove"},{"x":1042,"y":421,"t":798,"event":"mousemove"},{"x":1063,"y":397,"t":814,"event":"mousemove"},{"x":1081,"y":374,"t":832,"event":"mousemove"},{"x":1099,"y":356,"t":847,"event":"mousemove"},{"x":1105,"y":350,"t":865,"event":"mousemove"},{"x":1112,"y":343,"t":883,"event":"mousemove"},{"x":1117,"y":338,"t":899,"event":"mousemove"},{"x":1124,"y":330,"t":916,"event":"mousemove"},{"x":1127,"y":326,"t":931,"event":"mousemove"},{"x":1131,"y":321,"t":949,"event":"mousemove"},{"x":1131,"y":319,"t":966,"event":"mousemove"},{"x":1131,"y":318,"t":1037,"event":"mousemove"}],"mouse_tracking_targets":{},"correct":true},{"rt":1015,"stimulus":"<p>How confident are you about your choice ?</p>","slider_start":50,"response":89,"trial_type":"html-slider-response","trial_index":27,"time_elapsed":57905,"internal_node_id":"0.0-6.0-2.2"},{"rt":null,"stimulus":"\n        <div id='jspsych-image' style='position: relative; width: min(80vw, 80vh); height: min(80vw, 80vh);'>\n                \n                <div style='position: absolute; top: 40%; left: 30%; bottom: 40%; right: 30%;'><h1 style='font-size: 60px; color: green;'>Correct!</h1></div>\n                \n                <div class='jspsych-image' id='jspsych-image-0' data-choice='0' style='top: 0;     left: 0;'><img style=\"width: 100%; height: 100%;\" src='../static/human_exp_images/task_size/02_1.png' class=''></img></div>\n                <div class='jspsych-image' id='jspsych-image-1' data-choice='1' style='top: 0;     right: 0;'><img style=\"width: 100%; height: 100%;\" src='../static/human_exp_images/task_size/02_3.png' class='correct-choice'></img></div>\n                <div class='jspsych-image' id='jspsych-image-2' data-choice='2' style='bottom: 0;  left: 0;'><img style=\"width: 100%; height: 100%;\" src='../static/human_exp_images/task_size/02_2.png' class=''></img></div>\n                <div class='jspsych-image' id='jspsych-image-3' data-choice='3' style='bottom: 0;  right: 0;'><img style=\"width: 100%; height: 100%;\" src='../static/human_exp_images/task_size/02_0.png' class=''></img></div>\n\n        </div>","response":null,"trial_type":"html-keyboard-response","trial_index":28,"time_elapsed":59408,"internal_node_id":"0.0-6.0-3.2"},{"rt":null,"trial_type":"image-click","trial_index":29,"time_elapsed":59410,"internal_node_id":"0.0-6.0-0.3"},{"rt":1307,"response":2,"all_choices":["../static/human_exp_images/task_size/03_0.png","../static/human_exp_images/task_size/03_1.png","../static/human_exp_images/task_size/03_3.png","../static/human_exp_images/task_size/03_2.png"],"task":"response","correct_response":2,"shuffled_array":[0,1,3,2],"catch_trial":false,"trial_type":"image-click","trial_index":30,"time_elapsed":60719,"internal_node_id":"0.0-6.0-1.3","mouse_tracking_data":[{"x":1028,"y":504,"t":441,"event":"mousemove"},{"x":1028,"y":503,"t":560,"event":"mousemove"},{"x":1028,"y":501,"t":568,"event":"mousemove"},{"x":1028,"y":499,"t":768,"event":"mousemove"},{"x":1024,"y":499,"t":925,"event":"mousemove"},{"x":1021,"y":499,"t":933,"event":"mousemove"},{"x":1019,"y":499,"t":936,"event":"mousemove"},{"x":1007,"y":499,"t":952,"event":"mousemove"},{"x":995,"y":501,"t":969,"event":"mousemove"},{"x":973,"y":514,"t":984,"event":"mousemove"},{"x":956,"y":524,"t":1001,"event":"mousemove"},{"x":942,"y":531,"t":1018,"event":"mousemove"},{"x":918,"y":543,"t":1035,"event":"mousemove"},{"x":900,"y":559,"t":1052,"event":"mousemove"},{"x":888,"y":569,"t":1068,"event":"mousemove"},{"x":862,"y":586,"t":1086,"event":"mousemove"},{"x":843,"y":599,"t":1102,"event":"mousemove"},{"x":836,"y":604,"t":1118,"event":"mousemove"},{"x":820,"y":617,"t":1135,"event":"mousemove"},{"x":807,"y":624,"t":1152,"event":"mousemove"},{"x":804,"y":626,"t":1169,"event":"mousemove"},{"x":800,"y":629,"t":1185,"event":"mousemove"},{"x":798,"y":629,"t":1214,"event":"mousemove"}],"mouse_tracking_targets":{},"correct":true},{"rt":857,"stimulus":"<p>How confident are you about your choice ?</p>","slider_start":50,"response":19,"trial_type":"html-slider-response","trial_index":31,"time_elapsed":61577,"internal_node_id":"0.0-6.0-2.3"},{"rt":null,"stimulus":"\n        <div id='jspsych-image' style='position: relative; width: min(80vw, 80vh); height: min(80vw, 80vh);'>\n                \n                <div style='position: absolute; top: 40%; left: 30%; bottom: 40%; right: 30%;'><h1 style='font-size: 60px; color: green;'>Correct!</h1></div>\n                \n                <div class='jspsych-image' id='jspsych-image-0' data-choice='0' style='top: 0;     left: 0;'><img style=\"width: 100%; height: 100%;\" src='../static/human_exp_images/task_size/03_0.png' class=''></img></div>\n                <div class='jspsych-image' id='jspsych-image-1' data-choice='1' style='top: 0;     right: 0;'><img style=\"width: 100%; height: 100%;\" src='../static/human_exp_images/task_size/03_1.png' class=''></img></div>\n                <div class='jspsych-image' id='jspsych-image-2' data-choice='2' style='bottom: 0;  left: 0;'><img style=\"width: 100%; height: 100%;\" src='../static/human_exp_images/task_size/03_3.png' class='correct-choice'></img></div>\n                <div class='jspsych-image' id='jspsych-image-3' data-choice='3' style='bottom: 0;  right: 0;'><img style=\"width: 100%; height: 100%;\" src='../static/human_exp_images/task_size/03_2.png' class=''></img></div>\n\n        </div>","response":null,"trial_type":"html-keyboard-response","trial_index":32,"time_elapsed":63081,"internal_node_id":"0.0-6.0-3.3"},{"rt":null,"trial_type":"image-click","trial_index":33,"time_elapsed":63083,"internal_node_id":"0.0-6.0-0.4"},{"rt":1089,"response":2,"all_choices":["../static/human_exp_images/task_size/04_1.png","../static/human_exp_images/task_size/04_0.png","../static/human_exp_images/task_size/04_3.png","../static/human_exp_images/task_size/04_2.png"],"task":"response","correct_response":2,"shuffled_array":[1,0,3,2],"catch_trial":false,"trial_type":"image-click","trial_index":34,"time_elapsed":64173,"internal_node_id":"0.0-6.0-1.4","mouse_tracking_data":[{"x":981,"y":478,"t":163,"event":"mousemove"},{"x":980,"y":478,"t":177,"event":"mousemove"},{"x":980,"y":476,"t":212,"event":"mousemove"},{"x":980,"y":474,"t":306,"event":"mousemove"},{"x":980,"y":472,"t":322,"event":"mousemove"},{"x":980,"y":471,"t":332,"event":"mousemove"},{"x":980,"y":469,"t":346,"event":"mousemove"},{"x":980,"y":467,"t":350,"event":"mousemove"},{"x":983,"y":466,"t":359,"event":"mousemove"},{"x":985,"y":464,"t":367,"event":"mousemove"},{"x":986,"y":464,"t":369,"event":"mousemove"},{"x":988,"y":461,"t":377,"event":"mousemove"},{"x":990,"y":461,"t":379,"event":"mousemove"},{"x":993,"y":459,"t":385,"event":"mousemove"},{"x":995,"y":457,"t":387,"event":"mousemove"},{"x":1000,"y":450,"t":403,"event":"mousemove"},{"x":1005,"y":447,"t":420,"event":"mousemove"},{"x":1012,"y":438,"t":436,"event":"mousemove"},{"x":1022,"y":426,"t":453,"event":"mousemove"},{"x":1031,"y":418,"t":469,"event":"mousemove"},{"x":1039,"y":409,"t":486,"event":"mousemove"},{"x":1046,"y":404,"t":503,"event":"mousemove"},{"x":1055,"y":397,"t":520,"event":"mousemove"},{"x":1060,"y":392,"t":537,"event":"mousemove"},{"x":1062,"y":391,"t":553,"event":"mousemove"},{"x":1060,"y":391,"t":659,"event":"mousemove"},{"x":1055,"y":391,"t":666,"event":"mousemove"},{"x":1053,"y":391,"t":667,"event":"mousemove"},{"x":1048,"y":391,"t":675,"event":"mousemove"},{"x":1046,"y":392,"t":677,"event":"mousemove"},{"x":1041,"y":396,"t":684,"event":"mousemove"},{"x":1038,"y":397,"t":688,"event":"mousemove"},{"x":1034,"y":399,"t":694,"event":"mousemove"},{"x":1031,"y":401,"t":698,"event":"mousemove"},{"x":1027,"y":402,"t":702,"event":"mousemove"},{"x":1026,"y":402,"t":703,"event":"mousemove"},{"x":1021,"y":404,"t":713,"event":"mousemove"},{"x":1019,"y":404,"t":714,"event":"mousemove"},{"x":1012,"y":406,"t":730,"event":"mousemove"},{"x":997,"y":409,"t":747,"event":"mousemove"},{"x":979,"y":416,"t":764,"event":"mousemove"},{"x":959,"y":425,"t":780,"event":"mousemove"},{"x":938,"y":442,"t":796,"event":"mousemove"},{"x":917,"y":463,"t":813,"event":"mousemove"},{"x":901,"y":476,"t":830,"event":"mousemove"},{"x":875,"y":502,"t":846,"event":"mousemove"},{"x":850,"y":529,"t":864,"event":"mousemove"},{"x":836,"y":550,"t":880,"event":"mousemove"},{"x":818,"y":575,"t":897,"event":"mousemove"},{"x":807,"y":591,"t":914,"event":"mousemove"},{"x":793,"y":614,"t":931,"event":"mousemove"},{"x":781,"y":628,"t":947,"event":"mousemove"},{"x":776,"y":632,"t":964,"event":"mousemove"},{"x":776,"y":633,"t":980,"event":"mousemove"}],"mouse_tracking_targets":{},"correct":true},{"rt":1344,"stimulus":"<p>How confident are you about your choice ?</p>","slider_start":50,"response":82,"trial_type":"html-slider-response","trial_index":35,"time_elapsed":65519,"internal_node_id":"0.0-6.0-2.4"},{"rt":null,"stimulus":"\n        <div id='jspsych-image' style='position: relative; width: min(80vw, 80vh); height: min(80vw, 80vh);'>\n                \n                <div style='position: absolute; top: 40%; left: 30%; bottom: 40%; right: 30%;'><h1 style='font-size: 60px; color: green;'>Correct!</h1></div>\n                \n                <div class='jspsych-image' id='jspsych-image-0' data-choice='0' style='top: 0;     left: 0;'><img style=\"width: 100%; height: 100%;\" src='../static/human_exp_images/task_size/04_1.png' class=''></img></div>\n                <div class='jspsych-image' id='jspsych-image-1' data-choice='1' style='top: 0;     right: 0;'><img style=\"width: 100%; height: 100%;\" src='../static/human_exp_images/task_size/04_0.png' class=''></img></div>\n                <div class='jspsych-image' id='jspsych-image-2' data-choice='2' style='bottom: 0;  left: 0;'><img style=\"width: 100%; height: 100%;\" src='../static/human_exp_images/task_size/04_3.png' class='correct-choice'></img></div>\n                <div class='jspsych-image' id='jspsych-image-3' data-choice='3' style='bottom: 0;  right: 0;'><img style=\"width: 100%; height: 100%;\" src='../static/human_exp_images/task_size/04_2.png' class=''></img></div>\n\n        </div>","response":null,"trial_type":"html-keyboard-response","trial_index":36,"time_elapsed":67021,"internal_node_id":"0.0-6.0-3.4"},{"rt":null,"trial_type":"image-click","trial_index":37,"time_elapsed":67022,"internal_node_id":"0.0-6.0-0.5"},{"rt":1206,"response":1,"all_choices":["../static/human_exp_images/task_size/05_2.png","../static/human_exp_images/task_size/05_3.png","../static/human_exp_images/task_size/05_1.png","../static/human_exp_images/task_size/05_0.png"],"task":"response","correct_response":1,"shuffled_array":[2,3,1,0],"catch_trial":false,"trial_type":"image-click","trial_index":38,"time_elapsed":68229,"internal_node_id":"0.0-6.0-1.5","mouse_tracking_data":[{"x":988,"y":530,"t":16,"event":"mousemove"},{"x":988,"y":532,"t":32,"event":"mousemove"},{"x":988,"y":533,"t":49,"event":"mousemove"},{"x":988,"y":535,"t":75,"event":"mousemove"},{"x":988,"y":537,"t":92,"event":"mousemove"},{"x":988,"y":538,"t":140,"event":"mousemove"},{"x":991,"y":538,"t":705,"event":"mousemove"},{"x":993,"y":538,"t":707,"event":"mousemove"},{"x":1002,"y":530,"t":723,"event":"mousemove"},{"x":1015,"y":505,"t":740,"event":"mousemove"},{"x":1023,"y":491,"t":756,"event":"mousemove"},{"x":1031,"y":476,"t":773,"event":"mousemove"},{"x":1034,"y":471,"t":790,"event":"mousemove"},{"x":1036,"y":469,"t":807,"event":"mousemove"},{"x":1039,"y":466,"t":822,"event":"mousemove"},{"x":1043,"y":462,"t":840,"event":"mousemove"},{"x":1044,"y":456,"t":857,"event":"mousemove"},{"x":1046,"y":444,"t":873,"event":"mousemove"},{"x":1048,"y":432,"t":890,"event":"mousemove"},{"x":1049,"y":421,"t":906,"event":"mousemove"},{"x":1056,"y":409,"t":924,"event":"mousemove"},{"x":1068,"y":391,"t":940,"event":"mousemove"},{"x":1078,"y":377,"t":957,"event":"mousemove"},{"x":1095,"y":360,"t":973,"event":"mousemove"},{"x":1110,"y":339,"t":991,"event":"mousemove"},{"x":1129,"y":314,"t":1006,"event":"mousemove"},{"x":1138,"y":297,"t":1023,"event":"mousemove"},{"x":1142,"y":290,"t":1039,"event":"mousemove"},{"x":1145,"y":285,"t":1057,"event":"mousemove"},{"x":1145,"y":283,"t":1114,"event":"mousemove"}],"mouse_tracking_targets":{},"correct":true},{"rt":852,"stimulus":"<p>How confident are you about your choice ?</p>","slider_start":50,"response":85,"trial_type":"html-slider-response","trial_index":39,"time_elapsed":69082,"internal_node_id":"0.0-6.0-2.5"},{"rt":null,"stimulus":"\n        <div id='jspsych-image' style='position: relative; width: min(80vw, 80vh); height: min(80vw, 80vh);'>\n                \n                <div style='position: absolute; top: 40%; left: 30%; bottom: 40%; right: 30%;'><h1 style='font-size: 60px; color: green;'>Correct!</h1></div>\n                \n                <div class='jspsych-image' id='jspsych-image-0' data-choice='0' style='top: 0;     left: 0;'><img style=\"width: 100%; height: 100%;\" src='../static/human_exp_images/task_size/05_2.png' class=''></img></div>\n                <div class='jspsych-image' id='jspsych-image-1' data-choice='1' style='top: 0;     right: 0;'><img style=\"width: 100%; height: 100%;\" src='../static/human_exp_images/task_size/05_3.png' class='correct-choice'></img></div>\n                <div class='jspsych-image' id='jspsych-image-2' data-choice='2' style='bottom: 0;  left: 0;'><img style=\"width: 100%; height: 100%;\" src='../static/human_exp_images/task_size/05_1.png' class=''></img></div>\n                <div class='jspsych-image' id='jspsych-image-3' data-choice='3' style='bottom: 0;  right: 0;'><img style=\"width: 100%; height: 100%;\" src='../static/human_exp_images/task_size/05_0.png' class=''></img></div>\n\n        </div>","response":null,"trial_type":"html-keyboard-response","trial_index":40,"time_elapsed":70586,"internal_node_id":"0.0-6.0-3.5"},{"rt":null,"trial_type":"image-click","trial_index":41,"time_elapsed":70591,"internal_node_id":"0.0-6.0-0.6"},{"rt":2058,"response":0,"all_choices":["../static/human_exp_images/task_size/06_3.png","../static/human_exp_images/task_size/06_0.png","../static/human_exp_images/task_size/06_1.png","../static/human_exp_images/task_size/06_2.png"],"task":"response","correct_response":0,"shuffled_array":[3,0,1,2],"catch_trial":false,"trial_type":"image-click","trial_index":42,"time_elapsed":72649,"internal_node_id":"0.0-6.0-1.6","mouse_tracking_data":[{"x":1032,"y":498,"t":13,"event":"mousemove"},{"x":1032,"y":497,"t":30,"event":"mousemove"},{"x":1030,"y":497,"t":47,"event":"mousemove"},{"x":1029,"y":495,"t":62,"event":"mousemove"},{"x":1027,"y":495,"t":80,"event":"mousemove"},{"x":1025,"y":495,"t":279,"event":"mousemove"},{"x":1025,"y":493,"t":361,"event":"mousemove"},{"x":1023,"y":491,"t":443,"event":"mousemove"},{"x":1023,"y":490,"t":516,"event":"mousemove"},{"x":1022,"y":490,"t":524,"event":"mousemove"},{"x":1022,"y":488,"t":528,"event":"mousemove"},{"x":1018,"y":486,"t":533,"event":"mousemove"},{"x":1018,"y":485,"t":538,"event":"mousemove"},{"x":1015,"y":481,"t":542,"event":"mousemove"},{"x":1013,"y":479,"t":544,"event":"mousemove"},{"x":1005,"y":473,"t":560,"event":"mousemove"},{"x":993,"y":461,"t":577,"event":"mousemove"},{"x":984,"y":452,"t":594,"event":"mousemove"},{"x":974,"y":444,"t":610,"event":"mousemove"},{"x":965,"y":435,"t":626,"event":"mousemove"},{"x":960,"y":432,"t":643,"event":"mousemove"},{"x":960,"y":430,"t":661,"event":"mousemove"},{"x":959,"y":430,"t":678,"event":"mousemove"},{"x":957,"y":430,"t":871,"event":"mousemove"},{"x":955,"y":430,"t":889,"event":"mousemove"},{"x":952,"y":430,"t":898,"event":"mousemove"},{"x":950,"y":430,"t":902,"event":"mousemove"},{"x":945,"y":430,"t":907,"event":"mousemove"},{"x":943,"y":430,"t":908,"event":"mousemove"},{"x":934,"y":430,"t":924,"event":"mousemove"},{"x":919,"y":437,"t":941,"event":"mousemove"},{"x":901,"y":449,"t":958,"event":"mousemove"},{"x":884,"y":462,"t":975,"event":"mousemove"},{"x":876,"y":471,"t":991,"event":"mousemove"},{"x":863,"y":487,"t":1008,"event":"mousemove"},{"x":855,"y":497,"t":1024,"event":"mousemove"},{"x":843,"y":515,"t":1041,"event":"mousemove"},{"x":833,"y":528,"t":1057,"event":"mousemove"},{"x":824,"y":538,"t":1075,"event":"mousemove"},{"x":818,"y":549,"t":1091,"event":"mousemove"},{"x":811,"y":557,"t":1108,"event":"mousemove"},{"x":806,"y":562,"t":1125,"event":"mousemove"},{"x":799,"y":569,"t":1142,"event":"mousemove"},{"x":789,"y":579,"t":1159,"event":"mousemove"},{"x":774,"y":592,"t":1174,"event":"mousemove"},{"x":753,"y":622,"t":1192,"event":"mousemove"},{"x":744,"y":632,"t":1208,"event":"mousemove"},{"x":741,"y":635,"t":1225,"event":"mousemove"},{"x":741,"y":637,"t":1241,"event":"mousemove"},{"x":744,"y":635,"t":1429,"event":"mousemove"},{"x":753,"y":630,"t":1435,"event":"mousemove"},{"x":758,"y":625,"t":1439,"event":"mousemove"},{"x":774,"y":617,"t":1444,"event":"mousemove"},{"x":782,"y":614,"t":1449,"event":"mousemove"},{"x":798,"y":606,"t":1454,"event":"mousemove"},{"x":811,"y":597,"t":1454,"event":"mousemove"},{"x":847,"y":582,"t":1471,"event":"mousemove"},{"x":912,"y":564,"t":1488,"event":"mousemove"},{"x":973,"y":548,"t":1504,"event":"mousemove"},{"x":1044,"y":535,"t":1521,"event":"mousemove"},{"x":1086,"y":532,"t":1537,"event":"mousemove"},{"x":1105,"y":532,"t":1554,"event":"mousemove"},{"x":1118,"y":532,"t":1571,"event":"mousemove"},{"x":1123,"y":532,"t":1587,"event":"mousemove"},{"x":1130,"y":532,"t":1605,"event":"mousemove"},{"x":1139,"y":532,"t":1621,"event":"mousemove"},{"x":1140,"y":532,"t":1638,"event":"mousemove"},{"x":1140,"y":530,"t":1684,"event":"mousemove"},{"x":1140,"y":524,"t":1690,"event":"mousemove"},{"x":1140,"y":520,"t":1695,"event":"mousemove"},{"x":1140,"y":511,"t":1698,"event":"mousemove"},{"x":1135,"y":503,"t":1700,"event":"mousemove"},{"x":1110,"y":472,"t":1716,"event":"mousemove"},{"x":1085,"y":447,"t":1734,"event":"mousemove"},{"x":1031,"y":409,"t":1750,"event":"mousemove"},{"x":977,"y":370,"t":1766,"event":"mousemove"},{"x":936,"y":348,"t":1783,"event":"mousemove"},{"x":872,"y":313,"t":1800,"event":"mousemove"},{"x":851,"y":300,"t":1816,"event":"mousemove"},{"x":811,"y":286,"t":1833,"event":"mousemove"},{"x":783,"y":271,"t":1850,"event":"mousemove"},{"x":752,"y":256,"t":1867,"event":"mousemove"},{"x":742,"y":250,"t":1884,"event":"mousemove"},{"x":737,"y":246,"t":1900,"event":"mousemove"},{"x":730,"y":241,"t":1917,"event":"mousemove"},{"x":727,"y":239,"t":1933,"event":"mousemove"}],"mouse_tracking_targets":{},"correct":true},{"rt":1228,"stimulus":"<p>How confident are you about your choice ?</p>","slider_start":50,"response":22,"trial_type":"html-slider-response","trial_index":43,"time_elapsed":73881,"internal_node_id":"0.0-6.0-2.6"},{"rt":null,"stimulus":"\n        <div id='jspsych-image' style='position: relative; width: min(80vw, 80vh); height: min(80vw, 80vh);'>\n                \n                <div style='position: absolute; top: 40%; left: 30%; bottom: 40%; right: 30%;'><h1 style='font-size: 60px; color: green;'>Correct!</h1></div>\n                \n                <div class='jspsych-image' id='jspsych-image-0' data-choice='0' style='top: 0;     left: 0;'><img style=\"width: 100%; height: 100%;\" src='../static/human_exp_images/task_size/06_3.png' class='correct-choice'></img></div>\n                <div class='jspsych-image' id='jspsych-image-1' data-choice='1' style='top: 0;     right: 0;'><img style=\"width: 100%; height: 100%;\" src='../static/human_exp_images/task_size/06_0.png' class=''></img></div>\n                <div class='jspsych-image' id='jspsych-image-2' data-choice='2' style='bottom: 0;  left: 0;'><img style=\"width: 100%; height: 100%;\" src='../static/human_exp_images/task_size/06_1.png' class=''></img></div>\n                <div class='jspsych-image' id='jspsych-image-3' data-choice='3' style='bottom: 0;  right: 0;'><img style=\"width: 100%; height: 100%;\" src='../static/human_exp_images/task_size/06_2.png' class=''></img></div>\n\n        </div>","response":null,"trial_type":"html-keyboard-response","trial_index":44,"time_elapsed":75383,"internal_node_id":"0.0-6.0-3.6"},{"rt":null,"trial_type":"image-click","trial_index":45,"time_elapsed":75387,"internal_node_id":"0.0-6.0-0.7"},{"rt":1375,"response":3,"all_choices":["../static/human_exp_images/task_size/07_0.png","../static/human_exp_images/task_size/07_1.png","../static/human_exp_images/task_size/07_2.png","../static/human_exp_images/task_size/07_3.png"],"task":"response","correct_response":3,"shuffled_array":[0,1,2,3],"catch_trial":false,"trial_type":"image-click","trial_index":46,"time_elapsed":76764,"internal_node_id":"0.0-6.0-1.7","mouse_tracking_data":[{"x":974,"y":492,"t":20,"event":"mousemove"},{"x":976,"y":492,"t":377,"event":"mousemove"},{"x":978,"y":492,"t":385,"event":"mousemove"},{"x":979,"y":492,"t":393,"event":"mousemove"},{"x":981,"y":492,"t":409,"event":"mousemove"},{"x":983,"y":492,"t":424,"event":"mousemove"},{"x":984,"y":492,"t":496,"event":"mousemove"},{"x":986,"y":492,"t":514,"event":"mousemove"},{"x":988,"y":492,"t":517,"event":"mousemove"},{"x":991,"y":492,"t":533,"event":"mousemove"},{"x":993,"y":488,"t":550,"event":"mousemove"},{"x":995,"y":487,"t":566,"event":"mousemove"},{"x":996,"y":487,"t":583,"event":"mousemove"},{"x":996,"y":485,"t":599,"event":"mousemove"},{"x":998,"y":485,"t":1076,"event":"mousemove"},{"x":1000,"y":485,"t":1079,"event":"mousemove"},{"x":1001,"y":485,"t":1084,"event":"mousemove"},{"x":1003,"y":485,"t":1089,"event":"mousemove"},{"x":1010,"y":485,"t":1093,"event":"mousemove"},{"x":1017,"y":490,"t":1110,"event":"mousemove"},{"x":1043,"y":515,"t":1127,"event":"mousemove"},{"x":1091,"y":549,"t":1143,"event":"mousemove"},{"x":1139,"y":576,"t":1161,"event":"mousemove"},{"x":1167,"y":590,"t":1176,"event":"mousemove"},{"x":1180,"y":594,"t":1194,"event":"mousemove"},{"x":1184,"y":596,"t":1210,"event":"mousemove"}],"mouse_tracking_targets":{},"correct":true},{"rt":1067,"stimulus":"<p>How confident are you about your choice ?</p>","slider_start":50,"response":86,"trial_type":"html-slider-response","trial_index":47,"time_elapsed":77834,"internal_node_id":"0.0-6.0-2.7"},{"rt":null,"stimulus":"\n        <div id='jspsych-image' style='position: relative; width: min(80vw, 80vh); height: min(80vw, 80vh);'>\n                \n                <div style='position: absolute; top: 40%; left: 30%; bottom: 40%; right: 30%;'><h1 style='font-size: 60px; color: green;'>Correct!</h1></div>\n                \n                <div class='jspsych-image' id='jspsych-image-0' data-choice='0' style='top: 0;     left: 0;'><img style=\"width: 100%; height: 100%;\" src='../static/human_exp_images/task_size/07_0.png' class=''></img></div>\n                <div class='jspsych-image' id='jspsych-image-1' data-choice='1' style='top: 0;     right: 0;'><img style=\"width: 100%; height: 100%;\" src='../static/human_exp_images/task_size/07_1.png' class=''></img></div>\n                <div class='jspsych-image' id='jspsych-image-2' data-choice='2' style='bottom: 0;  left: 0;'><img style=\"width: 100%; height: 100%;\" src='../static/human_exp_images/task_size/07_2.png' class=''></img></div>\n                <div class='jspsych-image' id='jspsych-image-3' data-choice='3' style='bottom: 0;  right: 0;'><img style=\"width: 100%; height: 100%;\" src='../static/human_exp_images/task_size/07_3.png' class='correct-choice'></img></div>\n\n        </div>","response":null,"trial_type":"html-keyboard-response","trial_index":48,"time_elapsed":79339,"internal_node_id":"0.0-6.0-3.7"},{"rt":null,"trial_type":"image-click","trial_index":49,"time_elapsed":79341,"internal_node_id":"0.0-6.0-0.8"},{"rt":1069,"response":0,"all_choices":["../static/human_exp_images/task_size/08_3.png","../static/human_exp_images/task_size/08_0.png","../static/human_exp_images/task_size/08_2.png","../static/human_exp_images/task_size/08_1.png"],"task":"response","correct_response":0,"shuffled_array":[3,0,2,1],"catch_trial":false,"trial_type":"image-click","trial_index":50,"time_elapsed":80413,"internal_node_id":"0.0-6.0-1.8","mouse_tracking_data":[{"x":1045,"y":496,"t":615,"event":"mousemove"},{"x":1043,"y":496,"t":622,"event":"mousemove"},{"x":1040,"y":496,"t":627,"event":"mousemove"},{"x":1038,"y":496,"t":632,"event":"mousemove"},{"x":1035,"y":496,"t":636,"event":"mousemove"},{"x":1031,"y":496,"t":637,"event":"mousemove"},{"x":1026,"y":496,"t":653,"event":"mousemove"},{"x":1007,"y":496,"t":670,"event":"mousemove"},{"x":986,"y":496,"t":686,"event":"mousemove"},{"x":967,"y":496,"t":704,"event":"mousemove"},{"x":948,"y":487,"t":721,"event":"mousemove"},{"x":939,"y":478,"t":737,"event":"mousemove"},{"x":923,"y":462,"t":754,"event":"mousemove"},{"x":910,"y":446,"t":770,"event":"mousemove"},{"x":895,"y":424,"t":787,"event":"mousemove"},{"x":883,"y":407,"t":803,"event":"mousemove"},{"x":867,"y":385,"t":820,"event":"mousemove"},{"x":857,"y":372,"t":836,"event":"mousemove"},{"x":843,"y":356,"t":854,"event":"mousemove"},{"x":830,"y":347,"t":870,"event":"mousemove"},{"x":821,"y":337,"t":887,"event":"mousemove"},{"x":816,"y":333,"t":904,"event":"mousemove"},{"x":804,"y":320,"t":920,"event":"mousemove"},{"x":799,"y":315,"t":937,"event":"mousemove"},{"x":794,"y":308,"t":953,"event":"mousemove"},{"x":790,"y":304,"t":970,"event":"mousemove"}],"mouse_tracking_targets":{},"correct":true},{"rt":944,"stimulus":"<p>How confident are you about your choice ?</p>","slider_start":50,"response":9,"trial_type":"html-slider-response","trial_index":51,"time_elapsed":81360,"internal_node_id":"0.0-6.0-2.8"},{"rt":null,"stimulus":"\n        <div id='jspsych-image' style='position: relative; width: min(80vw, 80vh); height: min(80vw, 80vh);'>\n                \n                <div style='position: absolute; top: 40%; left: 30%; bottom: 40%; right: 30%;'><h1 style='font-size: 60px; color: green;'>Correct!</h1></div>\n                \n                <div class='jspsych-image' id='jspsych-image-0' data-choice='0' style='top: 0;     left: 0;'><img style=\"width: 100%; height: 100%;\" src='../static/human_exp_images/task_size/08_3.png' class='correct-choice'></img></div>\n                <div class='jspsych-image' id='jspsych-image-1' data-choice='1' style='top: 0;     right: 0;'><img style=\"width: 100%; height: 100%;\" src='../static/human_exp_images/task_size/08_0.png' class=''></img></div>\n                <div class='jspsych-image' id='jspsych-image-2' data-choice='2' style='bottom: 0;  left: 0;'><img style=\"width: 100%; height: 100%;\" src='../static/human_exp_images/task_size/08_2.png' class=''></img></div>\n                <div class='jspsych-image' id='jspsych-image-3' data-choice='3' style='bottom: 0;  right: 0;'><img style=\"width: 100%; height: 100%;\" src='../static/human_exp_images/task_size/08_1.png' class=''></img></div>\n\n        </div>","response":null,"trial_type":"html-keyboard-response","trial_index":52,"time_elapsed":82862,"internal_node_id":"0.0-6.0-3.8"},{"rt":null,"trial_type":"image-click","trial_index":53,"time_elapsed":82864,"internal_node_id":"0.0-6.0-0.9"},{"rt":1227,"response":2,"all_choices":["../static/human_exp_images/task_size/09_2.png","../static/human_exp_images/task_size/09_0.png","../static/human_exp_images/task_size/09_3.png","../static/human_exp_images/task_size/09_1.png"],"task":"response","correct_response":2,"shuffled_array":[2,0,3,1],"catch_trial":false,"trial_type":"image-click","trial_index":54,"time_elapsed":84093,"internal_node_id":"0.0-6.0-1.9","mouse_tracking_data":[{"x":969,"y":510,"t":559,"event":"mousemove"},{"x":967,"y":510,"t":800,"event":"mousemove"},{"x":964,"y":510,"t":805,"event":"mousemove"},{"x":962,"y":510,"t":810,"event":"mousemove"},{"x":955,"y":510,"t":814,"event":"mousemove"},{"x":953,"y":510,"t":815,"event":"mousemove"},{"x":940,"y":510,"t":831,"event":"mousemove"},{"x":919,"y":510,"t":848,"event":"mousemove"},{"x":894,"y":513,"t":865,"event":"mousemove"},{"x":876,"y":519,"t":882,"event":"mousemove"},{"x":866,"y":524,"t":897,"event":"mousemove"},{"x":854,"y":531,"t":915,"event":"mousemove"},{"x":846,"y":538,"t":932,"event":"mousemove"},{"x":834,"y":547,"t":948,"event":"mousemove"},{"x":822,"y":557,"t":966,"event":"mousemove"},{"x":810,"y":567,"t":982,"event":"mousemove"},{"x":794,"y":582,"t":998,"event":"mousemove"},{"x":783,"y":590,"t":1014,"event":"mousemove"},{"x":775,"y":599,"t":1031,"event":"mousemove"},{"x":766,"y":607,"t":1047,"event":"mousemove"},{"x":759,"y":617,"t":1065,"event":"mousemove"},{"x":756,"y":621,"t":1082,"event":"mousemove"},{"x":753,"y":624,"t":1098,"event":"mousemove"}],"mouse_tracking_targets":{},"correct":true},{"rt":934,"stimulus":"<p>How confident are you about your choice ?</p>","slider_start":50,"response":89,"trial_type":"html-slider-response","trial_index":55,"time_elapsed":85030,"internal_node_id":"0.0-6.0-2.9"},{"rt":null,"stimulus":"\n        <div id='jspsych-image' style='position: relative; width: min(80vw, 80vh); height: min(80vw, 80vh);'>\n                \n                <div style='position: absolute; top: 40%; left: 30%; bottom: 40%; right: 30%;'><h1 style='font-size: 60px; color: green;'>Correct!</h1></div>\n                \n                <div class='jspsych-image' id='jspsych-image-0' data-choice='0' style='top: 0;     left: 0;'><img style=\"width: 100%; height: 100%;\" src='../static/human_exp_images/task_size/09_2.png' class=''></img></div>\n                <div class='jspsych-image' id='jspsych-image-1' data-choice='1' style='top: 0;     right: 0;'><img style=\"width: 100%; height: 100%;\" src='../static/human_exp_images/task_size/09_0.png' class=''></img></div>\n                <div class='jspsych-image' id='jspsych-image-2' data-choice='2' style='bottom: 0;  left: 0;'><img style=\"width: 100%; height: 100%;\" src='../static/human_exp_images/task_size/09_3.png' class='correct-choice'></img></div>\n                <div class='jspsych-image' id='jspsych-image-3' data-choice='3' style='bottom: 0;  right: 0;'><img style=\"width: 100%; height: 100%;\" src='../static/human_exp_images/task_size/09_1.png' class=''></img></div>\n\n        </div>","response":null,"trial_type":"html-keyboard-response","trial_index":56,"time_elapsed":86534,"internal_node_id":"0.0-6.0-3.9"},{"rt":null,"trial_type":"image-click","trial_index":57,"time_elapsed":86536,"internal_node_id":"0.0-6.0-0.10"},{"rt":945,"response":2,"all_choices":["../static/human_exp_images/task_size/10_1.png","../static/human_exp_images/task_size/10_2.png","../static/human_exp_images/task_size/10_3.png","../static/human_exp_images/task_size/10_0.png"],"task":"response","correct_response":2,"shuffled_array":[1,2,3,0],"catch_trial":false,"trial_type":"image-click","trial_index":58,"time_elapsed":87483,"internal_node_id":"0.0-6.0-1.10","mouse_tracking_data":[{"x":1014,"y":501,"t":14,"event":"mousemove"},{"x":1010,"y":501,"t":312,"event":"mousemove"},{"x":1008,"y":501,"t":313,"event":"mousemove"},{"x":1003,"y":501,"t":329,"event":"mousemove"},{"x":993,"y":501,"t":347,"event":"mousemove"},{"x":985,"y":501,"t":363,"event":"mousemove"},{"x":981,"y":501,"t":380,"event":"mousemove"},{"x":978,"y":501,"t":396,"event":"mousemove"},{"x":976,"y":501,"t":592,"event":"mousemove"},{"x":974,"y":501,"t":620,"event":"mousemove"},{"x":971,"y":501,"t":629,"event":"mousemove"},{"x":969,"y":501,"t":630,"event":"mousemove"},{"x":957,"y":501,"t":646,"event":"mousemove"},{"x":937,"y":506,"t":663,"event":"mousemove"},{"x":917,"y":522,"t":679,"event":"mousemove"},{"x":873,"y":562,"t":697,"event":"mousemove"},{"x":846,"y":590,"t":713,"event":"mousemove"},{"x":819,"y":614,"t":730,"event":"mousemove"},{"x":802,"y":631,"t":745,"event":"mousemove"},{"x":787,"y":646,"t":763,"event":"mousemove"},{"x":780,"y":652,"t":781,"event":"mousemove"},{"x":770,"y":657,"t":796,"event":"mousemove"},{"x":760,"y":663,"t":813,"event":"mousemove"},{"x":756,"y":663,"t":830,"event":"mousemove"},{"x":754,"y":663,"t":847,"event":"mousemove"}],"mouse_tracking_targets":{},"correct":true},{"rt":774,"stimulus":"<p>How confident are you about your choice ?</p>","slider_start":50,"response":20,"trial_type":"html-slider-response","trial_index":59,"time_elapsed":88258,"internal_node_id":"0.0-6.0-2.10"},{"rt":null,"stimulus":"\n        <div id='jspsych-image' style='position: relative; width: min(80vw, 80vh); height: min(80vw, 80vh);'>\n                \n                <div style='position: absolute; top: 40%; left: 30%; bottom: 40%; right: 30%;'><h1 style='font-size: 60px; color: green;'>Correct!</h1></div>\n                \n                <div class='jspsych-image' id='jspsych-image-0' data-choice='0' style='top: 0;     left: 0;'><img style=\"width: 100%; height: 100%;\" src='../static/human_exp_images/task_size/10_1.png' class=''></img></div>\n                <div class='jspsych-image' id='jspsych-image-1' data-choice='1' style='top: 0;     right: 0;'><img style=\"width: 100%; height: 100%;\" src='../static/human_exp_images/task_size/10_2.png' class=''></img></div>\n                <div class='jspsych-image' id='jspsych-image-2' data-choice='2' style='bottom: 0;  left: 0;'><img style=\"width: 100%; height: 100%;\" src='../static/human_exp_images/task_size/10_3.png' class='correct-choice'></img></div>\n                <div class='jspsych-image' id='jspsych-image-3' data-choice='3' style='bottom: 0;  right: 0;'><img style=\"width: 100%; height: 100%;\" src='../static/human_exp_images/task_size/10_0.png' class=''></img></div>\n\n        </div>","response":null,"trial_type":"html-keyboard-response","trial_index":60,"time_elapsed":89760,"internal_node_id":"0.0-6.0-3.10"},{"rt":null,"trial_type":"image-click","trial_index":61,"time_elapsed":89762,"internal_node_id":"0.0-6.0-0.11"},{"rt":1453,"response":3,"all_choices":["../static/human_exp_images/task_size/11_0.png","../static/human_exp_images/task_size/11_2.png","../static/human_exp_images/task_size/11_1.png","../static/human_exp_images/task_size/11_3.png"],"task":"response","correct_response":3,"shuffled_array":[0,2,1,3],"catch_trial":false,"trial_type":"image-click","trial_index":62,"time_elapsed":91218,"internal_node_id":"0.0-6.0-1.11","mouse_tracking_data":[{"x":970,"y":486,"t":141,"event":"mousemove"},{"x":970,"y":488,"t":153,"event":"mousemove"},{"x":972,"y":488,"t":314,"event":"mousemove"},{"x":974,"y":488,"t":315,"event":"mousemove"},{"x":979,"y":483,"t":332,"event":"mousemove"},{"x":982,"y":480,"t":349,"event":"mousemove"},{"x":986,"y":474,"t":365,"event":"mousemove"},{"x":991,"y":469,"t":383,"event":"mousemove"},{"x":996,"y":464,"t":398,"event":"mousemove"},{"x":998,"y":461,"t":415,"event":"mousemove"},{"x":999,"y":461,"t":431,"event":"mousemove"},{"x":999,"y":459,"t":780,"event":"mousemove"},{"x":999,"y":458,"t":787,"event":"mousemove"},{"x":999,"y":456,"t":789,"event":"mousemove"},{"x":999,"y":454,"t":796,"event":"mousemove"},{"x":999,"y":452,"t":800,"event":"mousemove"},{"x":999,"y":449,"t":806,"event":"mousemove"},{"x":996,"y":444,"t":816,"event":"mousemove"},{"x":992,"y":442,"t":817,"event":"mousemove"},{"x":983,"y":435,"t":834,"event":"mousemove"},{"x":958,"y":420,"t":851,"event":"mousemove"},{"x":927,"y":403,"t":867,"event":"mousemove"},{"x":891,"y":386,"t":884,"event":"mousemove"},{"x":867,"y":376,"t":900,"event":"mousemove"},{"x":844,"y":364,"t":917,"event":"mousemove"},{"x":837,"y":361,"t":934,"event":"mousemove"},{"x":835,"y":361,"t":950,"event":"mousemove"},{"x":835,"y":359,"t":967,"event":"mousemove"},{"x":834,"y":359,"t":983,"event":"mousemove"},{"x":835,"y":359,"t":1055,"event":"mousemove"},{"x":842,"y":359,"t":1063,"event":"mousemove"},{"x":846,"y":359,"t":1065,"event":"mousemove"},{"x":868,"y":363,"t":1082,"event":"mousemove"},{"x":893,"y":377,"t":1099,"event":"mousemove"},{"x":935,"y":402,"t":1115,"event":"mousemove"},{"x":982,"y":431,"t":1131,"event":"mousemove"},{"x":1022,"y":452,"t":1148,"event":"mousemove"},{"x":1044,"y":471,"t":1165,"event":"mousemove"},{"x":1063,"y":487,"t":1181,"event":"mousemove"},{"x":1073,"y":500,"t":1198,"event":"mousemove"},{"x":1082,"y":511,"t":1216,"event":"mousemove"},{"x":1088,"y":521,"t":1232,"event":"mousemove"},{"x":1100,"y":531,"t":1249,"event":"mousemove"},{"x":1114,"y":545,"t":1265,"event":"mousemove"},{"x":1128,"y":554,"t":1282,"event":"mousemove"},{"x":1138,"y":562,"t":1298,"event":"mousemove"},{"x":1143,"y":566,"t":1316,"event":"mousemove"},{"x":1147,"y":567,"t":1332,"event":"mousemove"}],"mouse_tracking_targets":{},"correct":true},{"rt":903,"stimulus":"<p>How confident are you about your choice ?</p>","slider_start":50,"response":84,"trial_type":"html-slider-response","trial_index":63,"time_elapsed":92122,"internal_node_id":"0.0-6.0-2.11"},{"rt":null,"stimulus":"\n        <div id='jspsych-image' style='position: relative; width: min(80vw, 80vh); height: min(80vw, 80vh);'>\n                \n                <div style='position: absolute; top: 40%; left: 30%; bottom: 40%; right: 30%;'><h1 style='font-size: 60px; color: green;'>Correct!</h1></div>\n                \n                <div class='jspsych-image' id='jspsych-image-0' data-choice='0' style='top: 0;     left: 0;'><img style=\"width: 100%; height: 100%;\" src='../static/human_exp_images/task_size/11_0.png' class=''></img></div>\n                <div class='jspsych-image' id='jspsych-image-1' data-choice='1' style='top: 0;     right: 0;'><img style=\"width: 100%; height: 100%;\" src='../static/human_exp_images/task_size/11_2.png' class=''></img></div>\n                <div class='jspsych-image' id='jspsych-image-2' data-choice='2' style='bottom: 0;  left: 0;'><img style=\"width: 100%; height: 100%;\" src='../static/human_exp_images/task_size/11_1.png' class=''></img></div>\n                <div class='jspsych-image' id='jspsych-image-3' data-choice='3' style='bottom: 0;  right: 0;'><img style=\"width: 100%; height: 100%;\" src='../static/human_exp_images/task_size/11_3.png' class='correct-choice'></img></div>\n\n        </div>","response":null,"trial_type":"html-keyboard-response","trial_index":64,"time_elapsed":93625,"internal_node_id":"0.0-6.0-3.11"},{"rt":null,"trial_type":"image-click","trial_index":65,"time_elapsed":93627,"internal_node_id":"0.0-6.0-0.12"},{"rt":1544,"response":3,"all_choices":["../static/human_exp_images/task_size/12_0.png","../static/human_exp_images/task_size/12_2.png","../static/human_exp_images/task_size/12_1.png","../static/human_exp_images/task_size/12_3.png"],"task":"response","correct_response":3,"shuffled_array":[0,2,1,3],"catch_trial":false,"trial_type":"image-click","trial_index":66,"time_elapsed":95173,"internal_node_id":"0.0-6.0-1.12","mouse_tracking_data":[{"x":1008,"y":492,"t":371,"event":"mousemove"},{"x":1006,"y":492,"t":377,"event":"mousemove"},{"x":1005,"y":492,"t":386,"event":"mousemove"},{"x":1003,"y":492,"t":401,"event":"mousemove"},{"x":1001,"y":492,"t":405,"event":"mousemove"},{"x":999,"y":493,"t":424,"event":"mousemove"},{"x":999,"y":495,"t":441,"event":"mousemove"},{"x":999,"y":497,"t":460,"event":"mousemove"},{"x":999,"y":498,"t":506,"event":"mousemove"},{"x":999,"y":500,"t":525,"event":"mousemove"},{"x":999,"y":502,"t":533,"event":"mousemove"},{"x":999,"y":504,"t":551,"event":"mousemove"},{"x":998,"y":504,"t":766,"event":"mousemove"},{"x":994,"y":504,"t":770,"event":"mousemove"},{"x":993,"y":504,"t":773,"event":"mousemove"},{"x":982,"y":504,"t":789,"event":"mousemove"},{"x":970,"y":504,"t":806,"event":"mousemove"},{"x":962,"y":504,"t":822,"event":"mousemove"},{"x":949,"y":504,"t":839,"event":"mousemove"},{"x":943,"y":504,"t":856,"event":"mousemove"},{"x":938,"y":504,"t":873,"event":"mousemove"},{"x":936,"y":504,"t":889,"event":"mousemove"},{"x":934,"y":504,"t":906,"event":"mousemove"},{"x":932,"y":504,"t":925,"event":"mousemove"},{"x":931,"y":504,"t":944,"event":"mousemove"},{"x":929,"y":504,"t":962,"event":"mousemove"},{"x":926,"y":504,"t":971,"event":"mousemove"},{"x":924,"y":507,"t":981,"event":"mousemove"},{"x":922,"y":509,"t":983,"event":"mousemove"},{"x":920,"y":514,"t":988,"event":"mousemove"},{"x":919,"y":517,"t":999,"event":"mousemove"},{"x":919,"y":519,"t":999,"event":"mousemove"},{"x":915,"y":522,"t":1016,"event":"mousemove"},{"x":915,"y":524,"t":1033,"event":"mousemove"},{"x":914,"y":526,"t":1049,"event":"mousemove"},{"x":912,"y":527,"t":1067,"event":"mousemove"},{"x":912,"y":529,"t":1107,"event":"mousemove"},{"x":912,"y":531,"t":1227,"event":"mousemove"},{"x":912,"y":533,"t":1237,"event":"mousemove"},{"x":912,"y":534,"t":1245,"event":"mousemove"},{"x":912,"y":536,"t":1247,"event":"mousemove"},{"x":914,"y":539,"t":1253,"event":"mousemove"},{"x":917,"y":541,"t":1256,"event":"mousemove"},{"x":926,"y":543,"t":1262,"event":"mousemove"},{"x":930,"y":545,"t":1263,"event":"mousemove"},{"x":950,"y":552,"t":1279,"event":"mousemove"},{"x":994,"y":565,"t":1297,"event":"mousemove"},{"x":1038,"y":579,"t":1312,"event":"mousemove"},{"x":1083,"y":594,"t":1331,"event":"mousemove"},{"x":1118,"y":605,"t":1346,"event":"mousemove"},{"x":1145,"y":619,"t":1363,"event":"mousemove"},{"x":1159,"y":628,"t":1380,"event":"mousemove"},{"x":1175,"y":636,"t":1396,"event":"mousemove"},{"x":1183,"y":643,"t":1413,"event":"mousemove"},{"x":1185,"y":645,"t":1430,"event":"mousemove"}],"mouse_tracking_targets":{},"correct":true},{"rt":831,"stimulus":"<p>How confident are you about your choice ?</p>","slider_start":50,"response":7,"trial_type":"html-slider-response","trial_index":67,"time_elapsed":96005,"internal_node_id":"0.0-6.0-2.12"},{"rt":null,"stimulus":"\n        <div id='jspsych-image' style='position: relative; width: min(80vw, 80vh); height: min(80vw, 80vh);'>\n                \n                <div style='position: absolute; top: 40%; left: 30%; bottom: 40%; right: 30%;'><h1 style='font-size: 60px; color: green;'>Correct!</h1></div>\n                \n                <div class='jspsych-image' id='jspsych-image-0' data-choice='0' style='top: 0;     left: 0;'><img style=\"width: 100%; height: 100%;\" src='../static/human_exp_images/task_size/12_0.png' class=''></img></div>\n                <div class='jspsych-image' id='jspsych-image-1' data-choice='1' style='top: 0;     right: 0;'><img style=\"width: 100%; height: 100%;\" src='../static/human_exp_images/task_size/12_2.png' class=''></img></div>\n                <div class='jspsych-image' id='jspsych-image-2' data-choice='2' style='bottom: 0;  left: 0;'><img style=\"width: 100%; height: 100%;\" src='../static/human_exp_images/task_size/12_1.png' class=''></img></div>\n                <div class='jspsych-image' id='jspsych-image-3' data-choice='3' style='bottom: 0;  right: 0;'><img style=\"width: 100%; height: 100%;\" src='../static/human_exp_images/task_size/12_3.png' class='correct-choice'></img></div>\n\n        </div>","response":null,"trial_type":"html-keyboard-response","trial_index":68,"time_elapsed":97507,"internal_node_id":"0.0-6.0-3.12"},{"rt":null,"trial_type":"image-click","trial_index":69,"time_elapsed":97509,"internal_node_id":"0.0-6.0-0.13"},{"rt":1248,"response":2,"all_choices":["../static/human_exp_images/task_size/13_0.png","../static/human_exp_images/task_size/13_1.png","../static/human_exp_images/task_size/13_3.png","../static/human_exp_images/task_size/13_2.png"],"task":"response","correct_response":2,"shuffled_array":[0,1,3,2],"catch_trial":false,"trial_type":"image-click","trial_index":70,"time_elapsed":98759,"internal_node_id":"0.0-6.0-1.13","mouse_tracking_data":[{"x":1033,"y":494,"t":565,"event":"mousemove"},{"x":1035,"y":494,"t":574,"event":"mousemove"},{"x":1036,"y":496,"t":579,"event":"mousemove"},{"x":1038,"y":496,"t":589,"event":"mousemove"},{"x":1040,"y":496,"t":597,"event":"mousemove"},{"x":1042,"y":496,"t":617,"event":"mousemove"},{"x":1043,"y":496,"t":637,"event":"mousemove"},{"x":1040,"y":496,"t":734,"event":"mousemove"},{"x":1036,"y":496,"t":736,"event":"mousemove"},{"x":1029,"y":496,"t":742,"event":"mousemove"},{"x":1028,"y":496,"t":746,"event":"mousemove"},{"x":1022,"y":496,"t":752,"event":"mousemove"},{"x":1021,"y":496,"t":756,"event":"mousemove"},{"x":1017,"y":496,"t":760,"event":"mousemove"},{"x":1016,"y":496,"t":761,"event":"mousemove"},{"x":1014,"y":494,"t":771,"event":"mousemove"},{"x":1012,"y":494,"t":781,"event":"mousemove"},{"x":1012,"y":492,"t":788,"event":"mousemove"},{"x":1010,"y":492,"t":798,"event":"mousemove"},{"x":1009,"y":492,"t":844,"event":"mousemove"},{"x":1007,"y":492,"t":879,"event":"mousemove"},{"x":1005,"y":492,"t":882,"event":"mousemove"},{"x":1004,"y":492,"t":888,"event":"mousemove"},{"x":1000,"y":492,"t":898,"event":"mousemove"},{"x":998,"y":492,"t":899,"event":"mousemove"},{"x":997,"y":492,"t":907,"event":"mousemove"},{"x":995,"y":494,"t":908,"event":"mousemove"},{"x":992,"y":497,"t":916,"event":"mousemove"},{"x":990,"y":501,"t":921,"event":"mousemove"},{"x":985,"y":504,"t":926,"event":"mousemove"},{"x":983,"y":507,"t":930,"event":"mousemove"},{"x":980,"y":511,"t":935,"event":"mousemove"},{"x":976,"y":514,"t":940,"event":"mousemove"},{"x":973,"y":518,"t":945,"event":"mousemove"},{"x":969,"y":520,"t":946,"event":"mousemove"},{"x":964,"y":527,"t":961,"event":"mousemove"},{"x":947,"y":539,"t":979,"event":"mousemove"},{"x":920,"y":558,"t":995,"event":"mousemove"},{"x":880,"y":587,"t":1012,"event":"mousemove"},{"x":850,"y":607,"t":1029,"event":"mousemove"},{"x":820,"y":629,"t":1045,"event":"mousemove"},{"x":806,"y":639,"t":1063,"event":"mousemove"},{"x":788,"y":650,"t":1079,"event":"mousemove"},{"x":773,"y":658,"t":1096,"event":"mousemove"},{"x":768,"y":662,"t":1112,"event":"mousemove"},{"x":764,"y":664,"t":1130,"event":"mousemove"}],"mouse_tracking_targets":{},"correct":true},{"rt":1484,"stimulus":"<p>How confident are you about your choice ?</p>","slider_start":50,"response":96,"trial_type":"html-slider-response","trial_index":71,"time_elapsed":100245,"internal_node_id":"0.0-6.0-2.13"},{"rt":null,"stimulus":"\n        <div id='jspsych-image' style='position: relative; width: min(80vw, 80vh); height: min(80vw, 80vh);'>\n                \n                <div style='position: absolute; top: 40%; left: 30%; bottom: 40%; right: 30%;'><h1 style='font-size: 60px; color: green;'>Correct!</h1></div>\n                \n                <div class='jspsych-image' id='jspsych-image-0' data-choice='0' style='top: 0;     left: 0;'><img style=\"width: 100%; height: 100%;\" src='../static/human_exp_images/task_size/13_0.png' class=''></img></div>\n                <div class='jspsych-image' id='jspsych-image-1' data-choice='1' style='top: 0;     right: 0;'><img style=\"width: 100%; height: 100%;\" src='../static/human_exp_images/task_size/13_1.png' class=''></img></div>\n                <div class='jspsych-image' id='jspsych-image-2' data-choice='2' style='bottom: 0;  left: 0;'><img style=\"width: 100%; height: 100%;\" src='../static/human_exp_images/task_size/13_3.png' class='correct-choice'></img></div>\n                <div class='jspsych-image' id='jspsych-image-3' data-choice='3' style='bottom: 0;  right: 0;'><img style=\"width: 100%; height: 100%;\" src='../static/human_exp_images/task_size/13_2.png' class=''></img></div>\n\n        </div>","response":null,"trial_type":"html-keyboard-response","trial_index":72,"time_elapsed":101749,"internal_node_id":"0.0-6.0-3.13"},{"rt":null,"trial_type":"image-click","trial_index":73,"time_elapsed":102162,"internal_node_id":"0.0-6.0-0.14"},{"rt":1221,"response":2,"all_choices":["../static/human_exp_images/task_size/13_0.png","../static/human_exp_images/task_size/13_1.png","../static/human_exp_images/task_size/13_3.png","../static/human_exp_images/task_size/13_2.png"],"task":"response","correct_response":2,"shuffled_array":[0,1,3,2],"catch_trial":true,"trial_type":"image-click","trial_index":74,"time_elapsed":103385,"internal_node_id":"0.0-6.0-1.14","mouse_tracking_data":[{"x":988,"y":534,"t":0,"event":"mousemove"},{"x":988,"y":522,"t":14,"event":"mousemove"},{"x":988,"y":512,"t":32,"event":"mousemove"},{"x":988,"y":507,"t":48,"event":"mousemove"},{"x":988,"y":504,"t":65,"event":"mousemove"},{"x":988,"y":502,"t":81,"event":"mousemove"},{"x":988,"y":500,"t":99,"event":"mousemove"},{"x":988,"y":498,"t":153,"event":"mousemove"},{"x":987,"y":498,"t":867,"event":"mousemove"},{"x":985,"y":498,"t":869,"event":"mousemove"},{"x":971,"y":498,"t":885,"event":"mousemove"},{"x":937,"y":517,"t":901,"event":"mousemove"},{"x":920,"y":527,"t":918,"event":"mousemove"},{"x":891,"y":546,"t":935,"event":"mousemove"},{"x":873,"y":557,"t":951,"event":"mousemove"},{"x":857,"y":569,"t":968,"event":"mousemove"},{"x":850,"y":575,"t":984,"event":"mousemove"},{"x":847,"y":576,"t":1001,"event":"mousemove"},{"x":845,"y":578,"t":1018,"event":"mousemove"},{"x":845,"y":580,"t":1035,"event":"mousemove"},{"x":843,"y":581,"t":1052,"event":"mousemove"},{"x":831,"y":593,"t":1067,"event":"mousemove"},{"x":817,"y":611,"t":1085,"event":"mousemove"},{"x":809,"y":620,"t":1102,"event":"mousemove"},{"x":805,"y":623,"t":1119,"event":"mousemove"},{"x":804,"y":626,"t":1135,"event":"mousemove"}],"mouse_tracking_targets":{},"correct":true},{"rt":975,"stimulus":"<p>How confident are you about your choice ?</p>","slider_start":50,"response":8,"trial_type":"html-slider-response","trial_index":75,"time_elapsed":104360,"internal_node_id":"0.0-6.0-2.14"},{"rt":null,"stimulus":"\n        <div id='jspsych-image' style='position: relative; width: min(80vw, 80vh); height: min(80vw, 80vh);'>\n                \n                <div style='position: absolute; top: 40%; left: 30%; bottom: 40%; right: 30%;'><h1 style='font-size: 60px; color: green;'>Correct!</h1></div>\n                \n                <div class='jspsych-image' id='jspsych-image-0' data-choice='0' style='top: 0;     left: 0;'><img style=\"width: 100%; height: 100%;\" src='../static/human_exp_images/task_size/13_0.png' class=''></img></div>\n                <div class='jspsych-image' id='jspsych-image-1' data-choice='1' style='top: 0;     right: 0;'><img style=\"width: 100%; height: 100%;\" src='../static/human_exp_images/task_size/13_1.png' class=''></img></div>\n                <div class='jspsych-image' id='jspsych-image-2' data-choice='2' style='bottom: 0;  left: 0;'><img style=\"width: 100%; height: 100%;\" src='../static/human_exp_images/task_size/13_3.png' class='correct-choice'></img></div>\n                <div class='jspsych-image' id='jspsych-image-3' data-choice='3' style='bottom: 0;  right: 0;'><img style=\"width: 100%; height: 100%;\" src='../static/human_exp_images/task_size/13_2.png' class=''></img></div>\n\n        </div>","response":null,"trial_type":"html-keyboard-response","trial_index":76,"time_elapsed":105864,"internal_node_id":"0.0-6.0-3.14"},{"rt":null,"trial_type":"image-click","trial_index":77,"time_elapsed":105866,"internal_node_id":"0.0-6.0-0.15"},{"rt":1520,"response":1,"all_choices":["../static/human_exp_images/task_size/14_2.png","../static/human_exp_images/task_size/14_3.png","../static/human_exp_images/task_size/14_1.png","../static/human_exp_images/task_size/14_0.png"],"task":"response","correct_response":1,"shuffled_array":[2,3,1,0],"catch_trial":false,"trial_type":"image-click","trial_index":78,"time_elapsed":107390,"internal_node_id":"0.0-6.0-1.15","mouse_tracking_data":[{"x":970,"y":500,"t":967,"event":"mousemove"},{"x":970,"y":502,"t":1012,"event":"mousemove"},{"x":970,"y":504,"t":1021,"event":"mousemove"},{"x":972,"y":504,"t":1048,"event":"mousemove"},{"x":972,"y":505,"t":1067,"event":"mousemove"},{"x":974,"y":505,"t":1088,"event":"mousemove"},{"x":976,"y":505,"t":1093,"event":"mousemove"},{"x":979,"y":505,"t":1102,"event":"mousemove"},{"x":981,"y":505,"t":1104,"event":"mousemove"},{"x":987,"y":505,"t":1121,"event":"mousemove"},{"x":993,"y":505,"t":1137,"event":"mousemove"},{"x":1003,"y":497,"t":1154,"event":"mousemove"},{"x":1013,"y":483,"t":1171,"event":"mousemove"},{"x":1020,"y":473,"t":1186,"event":"mousemove"},{"x":1028,"y":464,"t":1204,"event":"mousemove"},{"x":1041,"y":447,"t":1221,"event":"mousemove"},{"x":1047,"y":433,"t":1237,"event":"mousemove"},{"x":1063,"y":402,"t":1253,"event":"mousemove"},{"x":1071,"y":386,"t":1269,"event":"mousemove"},{"x":1082,"y":367,"t":1287,"event":"mousemove"},{"x":1091,"y":354,"t":1304,"event":"mousemove"},{"x":1096,"y":342,"t":1320,"event":"mousemove"},{"x":1102,"y":337,"t":1337,"event":"mousemove"},{"x":1117,"y":308,"t":1353,"event":"mousemove"},{"x":1122,"y":297,"t":1370,"event":"mousemove"},{"x":1128,"y":290,"t":1388,"event":"mousemove"},{"x":1131,"y":287,"t":1404,"event":"mousemove"},{"x":1131,"y":285,"t":1420,"event":"mousemove"}],"mouse_tracking_targets":{},"correct":true},{"rt":1223,"stimulus":"<p>How confident are you about your choice ?</p>","slider_start":50,"response":95,"trial_type":"html-slider-response","trial_index":79,"time_elapsed":108614,"internal_node_id":"0.0-6.0-2.15"},{"rt":null,"stimulus":"\n        <div id='jspsych-image' style='position: relative; width: min(80vw, 80vh); height: min(80vw, 80vh);'>\n                \n                <div style='position: absolute; top: 40%; left: 30%; bottom: 40%; right: 30%;'><h1 style='font-size: 60px; color: green;'>Correct!</h1></div>\n                \n                <div class='jspsych-image' id='jspsych-image-0' data-choice='0' style='top: 0;     left: 0;'><img style=\"width: 100%; height: 100%;\" src='../static/human_exp_images/task_size/14_2.png' class=''></img></div>\n                <div class='jspsych-image' id='jspsych-image-1' data-choice='1' style='top: 0;     right: 0;'><img style=\"width: 100%; height: 100%;\" src='../static/human_exp_images/task_size/14_3.png' class='correct-choice'></img></div>\n                <div class='jspsych-image' id='jspsych-image-2' data-choice='2' style='bottom: 0;  left: 0;'><img style=\"width: 100%; height: 100%;\" src='../static/human_exp_images/task_size/14_1.png' class=''></img></div>\n                <div class='jspsych-image' id='jspsych-image-3' data-choice='3' style='bottom: 0;  right: 0;'><img style=\"width: 100%; height: 100%;\" src='../static/human_exp_images/task_size/14_0.png' class=''></img></div>\n\n        </div>","response":null,"trial_type":"html-keyboard-response","trial_index":80,"time_elapsed":110118,"internal_node_id":"0.0-6.0-3.15"},{"rt":null,"trial_type":"image-click","trial_index":81,"time_elapsed":110422,"internal_node_id":"0.0-6.0-0.16"},{"rt":1174,"response":1,"all_choices":["../static/human_exp_images/task_size/15_0.png","../static/human_exp_images/task_size/15_3.png","../static/human_exp_images/task_size/15_1.png","../static/human_exp_images/task_size/15_2.png"],"task":"response","correct_response":1,"shuffled_array":[0,3,1,2],"catch_trial":false,"trial_type":"image-click","trial_index":82,"time_elapsed":111598,"internal_node_id":"0.0-6.0-1.16","mouse_tracking_data":[{"x":1050,"y":472,"t":1,"event":"mousemove"},{"x":1022,"y":463,"t":15,"event":"mousemove"},{"x":1010,"y":461,"t":31,"event":"mousemove"},{"x":991,"y":459,"t":48,"event":"mousemove"},{"x":983,"y":457,"t":64,"event":"mousemove"},{"x":972,"y":456,"t":82,"event":"mousemove"},{"x":967,"y":454,"t":99,"event":"mousemove"},{"x":962,"y":454,"t":115,"event":"mousemove"},{"x":957,"y":454,"t":132,"event":"mousemove"},{"x":953,"y":454,"t":148,"event":"mousemove"},{"x":953,"y":452,"t":182,"event":"mousemove"},{"x":952,"y":452,"t":391,"event":"mousemove"},{"x":950,"y":452,"t":409,"event":"mousemove"},{"x":948,"y":452,"t":483,"event":"mousemove"},{"x":948,"y":450,"t":747,"event":"mousemove"},{"x":948,"y":449,"t":765,"event":"mousemove"},{"x":948,"y":447,"t":775,"event":"mousemove"},{"x":948,"y":444,"t":782,"event":"mousemove"},{"x":948,"y":442,"t":782,"event":"mousemove"},{"x":948,"y":432,"t":798,"event":"mousemove"},{"x":952,"y":420,"t":815,"event":"mousemove"},{"x":984,"y":390,"t":831,"event":"mousemove"},{"x":1035,"y":345,"t":848,"event":"mousemove"},{"x":1069,"y":321,"t":865,"event":"mousemove"},{"x":1091,"y":306,"t":882,"event":"mousemove"},{"x":1112,"y":291,"t":900,"event":"mousemove"},{"x":1123,"y":280,"t":915,"event":"mousemove"},{"x":1133,"y":268,"t":932,"event":"mousemove"},{"x":1143,"y":259,"t":948,"event":"mousemove"},{"x":1153,"y":249,"t":966,"event":"mousemove"},{"x":1160,"y":242,"t":982,"event":"mousemove"},{"x":1164,"y":241,"t":999,"event":"mousemove"},{"x":1167,"y":237,"t":1016,"event":"mousemove"},{"x":1169,"y":236,"t":1032,"event":"mousemove"}],"mouse_tracking_targets":{},"correct":true},{"rt":1265,"stimulus":"<p>How confident are you about your choice ?</p>","slider_start":50,"response":8,"trial_type":"html-slider-response","trial_index":83,"time_elapsed":112865,"internal_node_id":"0.0-6.0-2.16"},{"rt":null,"stimulus":"\n        <div id='jspsych-image' style='position: relative; width: min(80vw, 80vh); height: min(80vw, 80vh);'>\n                \n                <div style='position: absolute; top: 40%; left: 30%; bottom: 40%; right: 30%;'><h1 style='font-size: 60px; color: green;'>Correct!</h1></div>\n                \n                <div class='jspsych-image' id='jspsych-image-0' data-choice='0' style='top: 0;     left: 0;'><img style=\"width: 100%; height: 100%;\" src='../static/human_exp_images/task_size/15_0.png' class=''></img></div>\n                <div class='jspsych-image' id='jspsych-image-1' data-choice='1' style='top: 0;     right: 0;'><img style=\"width: 100%; height: 100%;\" src='../static/human_exp_images/task_size/15_3.png' class='correct-choice'></img></div>\n                <div class='jspsych-image' id='jspsych-image-2' data-choice='2' style='bottom: 0;  left: 0;'><img style=\"width: 100%; height: 100%;\" src='../static/human_exp_images/task_size/15_1.png' class=''></img></div>\n                <div class='jspsych-image' id='jspsych-image-3' data-choice='3' style='bottom: 0;  right: 0;'><img style=\"width: 100%; height: 100%;\" src='../static/human_exp_images/task_size/15_2.png' class=''></img></div>\n\n        </div>","response":null,"trial_type":"html-keyboard-response","trial_index":84,"time_elapsed":114368,"internal_node_id":"0.0-6.0-3.16"},{"rt":null,"trial_type":"image-click","trial_index":85,"time_elapsed":114370,"internal_node_id":"0.0-6.0-0.17"},{"rt":1103,"response":3,"all_choices":["../static/human_exp_images/task_size/16_1.png","../static/human_exp_images/task_size/16_0.png","../static/human_exp_images/task_size/16_2.png","../static/human_exp_images/task_size/16_3.png"],"task":"response","correct_response":3,"shuffled_array":[1,0,2,3],"catch_trial":false,"trial_type":"image-click","trial_index":86,"time_elapsed":115475,"internal_node_id":"0.0-6.0-1.17","mouse_tracking_data":[{"x":952,"y":456,"t":216,"event":"mousemove"},{"x":950,"y":456,"t":220,"event":"mousemove"},{"x":950,"y":455,"t":225,"event":"mousemove"},{"x":949,"y":455,"t":243,"event":"mousemove"},{"x":949,"y":453,"t":309,"event":"mousemove"},{"x":949,"y":451,"t":313,"event":"mousemove"},{"x":949,"y":449,"t":317,"event":"mousemove"},{"x":949,"y":448,"t":327,"event":"mousemove"},{"x":949,"y":446,"t":536,"event":"mousemove"},{"x":950,"y":446,"t":737,"event":"mousemove"},{"x":952,"y":446,"t":739,"event":"mousemove"},{"x":962,"y":446,"t":755,"event":"mousemove"},{"x":974,"y":448,"t":772,"event":"mousemove"},{"x":1004,"y":472,"t":788,"event":"mousemove"},{"x":1036,"y":497,"t":806,"event":"mousemove"},{"x":1086,"y":533,"t":821,"event":"mousemove"},{"x":1124,"y":563,"t":838,"event":"mousemove"},{"x":1151,"y":590,"t":856,"event":"mousemove"},{"x":1162,"y":604,"t":872,"event":"mousemove"},{"x":1166,"y":608,"t":889,"event":"mousemove"},{"x":1168,"y":611,"t":905,"event":"mousemove"}],"mouse_tracking_targets":{},"correct":true},{"rt":1200,"stimulus":"<p>How confident are you about your choice ?</p>","slider_start":50,"response":90,"trial_type":"html-slider-response","trial_index":87,"time_elapsed":116676,"internal_node_id":"0.0-6.0-2.17"},{"rt":null,"stimulus":"\n        <div id='jspsych-image' style='position: relative; width: min(80vw, 80vh); height: min(80vw, 80vh);'>\n                \n                <div style='position: absolute; top: 40%; left: 30%; bottom: 40%; right: 30%;'><h1 style='font-size: 60px; color: green;'>Correct!</h1></div>\n                \n                <div class='jspsych-image' id='jspsych-image-0' data-choice='0' style='top: 0;     left: 0;'><img style=\"width: 100%; height: 100%;\" src='../static/human_exp_images/task_size/16_1.png' class=''></img></div>\n                <div class='jspsych-image' id='jspsych-image-1' data-choice='1' style='top: 0;     right: 0;'><img style=\"width: 100%; height: 100%;\" src='../static/human_exp_images/task_size/16_0.png' class=''></img></div>\n                <div class='jspsych-image' id='jspsych-image-2' data-choice='2' style='bottom: 0;  left: 0;'><img style=\"width: 100%; height: 100%;\" src='../static/human_exp_images/task_size/16_2.png' class=''></img></div>\n                <div class='jspsych-image' id='jspsych-image-3' data-choice='3' style='bottom: 0;  right: 0;'><img style=\"width: 100%; height: 100%;\" src='../static/human_exp_images/task_size/16_3.png' class='correct-choice'></img></div>\n\n        </div>","response":null,"trial_type":"html-keyboard-response","trial_index":88,"time_elapsed":118179,"internal_node_id":"0.0-6.0-3.17"},{"rt":null,"trial_type":"image-click","trial_index":89,"time_elapsed":118182,"internal_node_id":"0.0-6.0-0.18"},{"rt":1455,"response":0,"all_choices":["../static/human_exp_images/task_size/17_3.png","../static/human_exp_images/task_size/17_1.png","../static/human_exp_images/task_size/17_0.png","../static/human_exp_images/task_size/17_2.png"],"task":"response","correct_response":0,"shuffled_array":[3,1,0,2],"catch_trial":false,"trial_type":"image-click","trial_index":90,"time_elapsed":119640,"internal_node_id":"0.0-6.0-1.18","mouse_tracking_data":[{"x":1019,"y":521,"t":460,"event":"mousemove"},{"x":1019,"y":519,"t":462,"event":"mousemove"},{"x":1019,"y":517,"t":487,"event":"mousemove"},{"x":1019,"y":516,"t":488,"event":"mousemove"},{"x":1019,"y":509,"t":504,"event":"mousemove"},{"x":1014,"y":500,"t":521,"event":"mousemove"},{"x":1000,"y":486,"t":538,"event":"mousemove"},{"x":981,"y":467,"t":555,"event":"mousemove"},{"x":964,"y":454,"t":570,"event":"mousemove"},{"x":944,"y":442,"t":587,"event":"mousemove"},{"x":939,"y":437,"t":604,"event":"mousemove"},{"x":937,"y":437,"t":620,"event":"mousemove"},{"x":935,"y":437,"t":669,"event":"mousemove"},{"x":934,"y":435,"t":681,"event":"mousemove"},{"x":928,"y":433,"t":697,"event":"mousemove"},{"x":913,"y":424,"t":717,"event":"mousemove"},{"x":905,"y":421,"t":731,"event":"mousemove"},{"x":893,"y":410,"t":748,"event":"mousemove"},{"x":881,"y":398,"t":764,"event":"mousemove"},{"x":873,"y":388,"t":780,"event":"mousemove"},{"x":866,"y":380,"t":798,"event":"mousemove"},{"x":863,"y":376,"t":814,"event":"mousemove"},{"x":859,"y":373,"t":831,"event":"mousemove"},{"x":859,"y":371,"t":847,"event":"mousemove"},{"x":857,"y":369,"t":1129,"event":"mousemove"},{"x":854,"y":368,"t":1138,"event":"mousemove"},{"x":852,"y":366,"t":1142,"event":"mousemove"},{"x":849,"y":364,"t":1147,"event":"mousemove"},{"x":847,"y":362,"t":1149,"event":"mousemove"},{"x":840,"y":357,"t":1164,"event":"mousemove"},{"x":823,"y":344,"t":1182,"event":"mousemove"},{"x":806,"y":328,"t":1198,"event":"mousemove"},{"x":792,"y":312,"t":1215,"event":"mousemove"},{"x":783,"y":299,"t":1232,"event":"mousemove"},{"x":775,"y":286,"t":1248,"event":"mousemove"},{"x":772,"y":280,"t":1265,"event":"mousemove"},{"x":767,"y":274,"t":1282,"event":"mousemove"},{"x":765,"y":269,"t":1297,"event":"mousemove"},{"x":763,"y":268,"t":1314,"event":"mousemove"},{"x":765,"y":268,"t":1446,"event":"mousemove"},{"x":770,"y":268,"t":1453,"event":"mousemove"}],"mouse_tracking_targets":{},"correct":true},{"rt":1066,"stimulus":"<p>How confident are you about your choice ?</p>","slider_start":50,"response":11,"trial_type":"html-slider-response","trial_index":91,"time_elapsed":120709,"internal_node_id":"0.0-6.0-2.18"},{"rt":null,"stimulus":"\n        <div id='jspsych-image' style='position: relative; width: min(80vw, 80vh); height: min(80vw, 80vh);'>\n                \n                <div style='position: absolute; top: 40%; left: 30%; bottom: 40%; right: 30%;'><h1 style='font-size: 60px; color: green;'>Correct!</h1></div>\n                \n                <div class='jspsych-image' id='jspsych-image-0' data-choice='0' style='top: 0;     left: 0;'><img style=\"width: 100%; height: 100%;\" src='../static/human_exp_images/task_size/17_3.png' class='correct-choice'></img></div>\n                <div class='jspsych-image' id='jspsych-image-1' data-choice='1' style='top: 0;     right: 0;'><img style=\"width: 100%; height: 100%;\" src='../static/human_exp_images/task_size/17_1.png' class=''></img></div>\n                <div class='jspsych-image' id='jspsych-image-2' data-choice='2' style='bottom: 0;  left: 0;'><img style=\"width: 100%; height: 100%;\" src='../static/human_exp_images/task_size/17_0.png' class=''></img></div>\n                <div class='jspsych-image' id='jspsych-image-3' data-choice='3' style='bottom: 0;  right: 0;'><img style=\"width: 100%; height: 100%;\" src='../static/human_exp_images/task_size/17_2.png' class=''></img></div>\n\n        </div>","response":null,"trial_type":"html-keyboard-response","trial_index":92,"time_elapsed":122211,"internal_node_id":"0.0-6.0-3.18"},{"rt":null,"trial_type":"image-click","trial_index":93,"time_elapsed":122213,"internal_node_id":"0.0-6.0-0.19"},{"rt":1752,"response":1,"all_choices":["../static/human_exp_images/task_size/18_0.png","../static/human_exp_images/task_size/18_3.png","../static/human_exp_images/task_size/18_1.png","../static/human_exp_images/task_size/18_2.png"],"task":"response","correct_response":1,"shuffled_array":[0,3,1,2],"catch_trial":false,"trial_type":"image-click","trial_index":94,"time_elapsed":123967,"internal_node_id":"0.0-6.0-1.19","mouse_tracking_data":[{"x":1027,"y":509,"t":971,"event":"mousemove"},{"x":1027,"y":508,"t":975,"event":"mousemove"},{"x":1029,"y":503,"t":980,"event":"mousemove"},{"x":1031,"y":498,"t":981,"event":"mousemove"},{"x":1038,"y":491,"t":988,"event":"mousemove"},{"x":1040,"y":487,"t":990,"event":"mousemove"},{"x":1050,"y":478,"t":998,"event":"mousemove"},{"x":1052,"y":473,"t":1000,"event":"mousemove"},{"x":1061,"y":464,"t":1007,"event":"mousemove"},{"x":1066,"y":457,"t":1010,"event":"mousemove"},{"x":1075,"y":447,"t":1016,"event":"mousemove"},{"x":1080,"y":442,"t":1021,"event":"mousemove"},{"x":1087,"y":433,"t":1025,"event":"mousemove"},{"x":1093,"y":427,"t":1027,"event":"mousemove"},{"x":1098,"y":420,"t":1035,"event":"mousemove"},{"x":1103,"y":415,"t":1037,"event":"mousemove"},{"x":1112,"y":408,"t":1053,"event":"mousemove"},{"x":1123,"y":401,"t":1070,"event":"mousemove"},{"x":1128,"y":399,"t":1085,"event":"mousemove"},{"x":1128,"y":397,"t":1103,"event":"mousemove"},{"x":1128,"y":395,"t":1125,"event":"mousemove"},{"x":1130,"y":394,"t":1133,"event":"mousemove"},{"x":1130,"y":390,"t":1142,"event":"mousemove"},{"x":1130,"y":387,"t":1143,"event":"mousemove"},{"x":1133,"y":382,"t":1160,"event":"mousemove"},{"x":1137,"y":373,"t":1177,"event":"mousemove"},{"x":1140,"y":368,"t":1192,"event":"mousemove"},{"x":1140,"y":366,"t":1210,"event":"mousemove"},{"x":1140,"y":365,"t":1280,"event":"mousemove"},{"x":1140,"y":363,"t":1286,"event":"mousemove"},{"x":1142,"y":363,"t":1289,"event":"mousemove"},{"x":1142,"y":360,"t":1297,"event":"mousemove"},{"x":1145,"y":354,"t":1313,"event":"mousemove"},{"x":1147,"y":351,"t":1317,"event":"mousemove"},{"x":1150,"y":346,"t":1331,"event":"mousemove"},{"x":1154,"y":337,"t":1347,"event":"mousemove"},{"x":1157,"y":329,"t":1363,"event":"mousemove"},{"x":1159,"y":324,"t":1379,"event":"mousemove"},{"x":1159,"y":320,"t":1397,"event":"mousemove"},{"x":1159,"y":319,"t":1414,"event":"mousemove"},{"x":1159,"y":317,"t":1431,"event":"mousemove"},{"x":1159,"y":315,"t":1448,"event":"mousemove"},{"x":1159,"y":313,"t":1463,"event":"mousemove"},{"x":1159,"y":312,"t":1543,"event":"mousemove"},{"x":1159,"y":310,"t":1635,"event":"mousemove"}],"mouse_tracking_targets":{},"correct":true},{"rt":1410,"stimulus":"<p>How confident are you about your choice ?</p>","slider_start":50,"response":87,"trial_type":"html-slider-response","trial_index":95,"time_elapsed":125377,"internal_node_id":"0.0-6.0-2.19"},{"rt":null,"stimulus":"\n        <div id='jspsych-image' style='position: relative; width: min(80vw, 80vh); height: min(80vw, 80vh);'>\n                \n                <div style='position: absolute; top: 40%; left: 30%; bottom: 40%; right: 30%;'><h1 style='font-size: 60px; color: green;'>Correct!</h1></div>\n                \n                <div class='jspsych-image' id='jspsych-image-0' data-choice='0' style='top: 0;     left: 0;'><img style=\"width: 100%; height: 100%;\" src='../static/human_exp_images/task_size/18_0.png' class=''></img></div>\n                <div class='jspsych-image' id='jspsych-image-1' data-choice='1' style='top: 0;     right: 0;'><img style=\"width: 100%; height: 100%;\" src='../static/human_exp_images/task_size/18_3.png' class='correct-choice'></img></div>\n                <div class='jspsych-image' id='jspsych-image-2' data-choice='2' style='bottom: 0;  left: 0;'><img style=\"width: 100%; height: 100%;\" src='../static/human_exp_images/task_size/18_1.png' class=''></img></div>\n                <div class='jspsych-image' id='jspsych-image-3' data-choice='3' style='bottom: 0;  right: 0;'><img style=\"width: 100%; height: 100%;\" src='../static/human_exp_images/task_size/18_2.png' class=''></img></div>\n\n        </div>","response":null,"trial_type":"html-keyboard-response","trial_index":96,"time_elapsed":126880,"internal_node_id":"0.0-6.0-3.19"},{"rt":null,"trial_type":"image-click","trial_index":97,"time_elapsed":127552,"internal_node_id":"0.0-6.0-0.20"},{"rt":1549,"response":1,"all_choices":["../static/human_exp_images/task_size/19_0.png","../static/human_exp_images/task_size/19_3.png","../static/human_exp_images/task_size/19_1.png","../static/human_exp_images/task_size/19_2.png"],"task":"response","correct_response":1,"shuffled_array":[0,3,1,2],"catch_trial":false,"trial_type":"image-click","trial_index":98,"time_elapsed":129104,"internal_node_id":"0.0-6.0-1.20","mouse_tracking_data":[{"x":1046,"y":467,"t":0,"event":"mousemove"},{"x":1037,"y":467,"t":16,"event":"mousemove"},{"x":1034,"y":467,"t":32,"event":"mousemove"},{"x":1032,"y":467,"t":49,"event":"mousemove"},{"x":1031,"y":467,"t":95,"event":"mousemove"},{"x":1029,"y":467,"t":102,"event":"mousemove"},{"x":1026,"y":467,"t":116,"event":"mousemove"},{"x":1020,"y":465,"t":132,"event":"mousemove"},{"x":1014,"y":463,"t":149,"event":"mousemove"},{"x":1010,"y":463,"t":165,"event":"mousemove"},{"x":1005,"y":462,"t":181,"event":"mousemove"},{"x":1000,"y":462,"t":198,"event":"mousemove"},{"x":995,"y":460,"t":216,"event":"mousemove"},{"x":990,"y":460,"t":233,"event":"mousemove"},{"x":986,"y":460,"t":248,"event":"mousemove"},{"x":985,"y":460,"t":274,"event":"mousemove"},{"x":983,"y":460,"t":293,"event":"mousemove"},{"x":981,"y":460,"t":310,"event":"mousemove"},{"x":978,"y":460,"t":319,"event":"mousemove"},{"x":976,"y":458,"t":328,"event":"mousemove"},{"x":974,"y":458,"t":329,"event":"mousemove"},{"x":969,"y":456,"t":346,"event":"mousemove"},{"x":966,"y":456,"t":363,"event":"mousemove"},{"x":964,"y":455,"t":379,"event":"mousemove"},{"x":962,"y":455,"t":396,"event":"mousemove"},{"x":961,"y":455,"t":412,"event":"mousemove"},{"x":959,"y":455,"t":429,"event":"mousemove"},{"x":957,"y":455,"t":463,"event":"mousemove"},{"x":957,"y":453,"t":472,"event":"mousemove"},{"x":957,"y":451,"t":490,"event":"mousemove"},{"x":957,"y":450,"t":510,"event":"mousemove"},{"x":957,"y":448,"t":528,"event":"mousemove"},{"x":957,"y":446,"t":555,"event":"mousemove"},{"x":957,"y":444,"t":592,"event":"mousemove"},{"x":957,"y":443,"t":829,"event":"mousemove"},{"x":957,"y":441,"t":1139,"event":"mousemove"},{"x":957,"y":440,"t":1149,"event":"mousemove"},{"x":957,"y":438,"t":1151,"event":"mousemove"},{"x":957,"y":436,"t":1156,"event":"mousemove"},{"x":957,"y":433,"t":1166,"event":"mousemove"},{"x":957,"y":431,"t":1168,"event":"mousemove"},{"x":962,"y":424,"t":1184,"event":"mousemove"},{"x":978,"y":412,"t":1201,"event":"mousemove"},{"x":992,"y":404,"t":1217,"event":"mousemove"},{"x":1009,"y":392,"t":1235,"event":"mousemove"},{"x":1027,"y":378,"t":1251,"event":"mousemove"},{"x":1048,"y":362,"t":1268,"event":"mousemove"},{"x":1066,"y":348,"t":1284,"event":"mousemove"},{"x":1078,"y":336,"t":1301,"event":"mousemove"},{"x":1085,"y":329,"t":1317,"event":"mousemove"},{"x":1095,"y":319,"t":1334,"event":"mousemove"},{"x":1104,"y":310,"t":1351,"event":"mousemove"},{"x":1109,"y":300,"t":1367,"event":"mousemove"},{"x":1118,"y":290,"t":1384,"event":"mousemove"},{"x":1125,"y":286,"t":1401,"event":"mousemove"},{"x":1126,"y":283,"t":1418,"event":"mousemove"},{"x":1128,"y":281,"t":1436,"event":"mousemove"},{"x":1128,"y":279,"t":1464,"event":"mousemove"}],"mouse_tracking_targets":{},"correct":true},{"rt":1596,"stimulus":"<p>How confident are you about your choice ?</p>","slider_start":50,"response":8,"trial_type":"html-slider-response","trial_index":99,"time_elapsed":130702,"internal_node_id":"0.0-6.0-2.20"},{"rt":null,"stimulus":"\n        <div id='jspsych-image' style='position: relative; width: min(80vw, 80vh); height: min(80vw, 80vh);'>\n                \n                <div style='position: absolute; top: 40%; left: 30%; bottom: 40%; right: 30%;'><h1 style='font-size: 60px; color: green;'>Correct!</h1></div>\n                \n                <div class='jspsych-image' id='jspsych-image-0' data-choice='0' style='top: 0;     left: 0;'><img style=\"width: 100%; height: 100%;\" src='../static/human_exp_images/task_size/19_0.png' class=''></img></div>\n                <div class='jspsych-image' id='jspsych-image-1' data-choice='1' style='top: 0;     right: 0;'><img style=\"width: 100%; height: 100%;\" src='../static/human_exp_images/task_size/19_3.png' class='correct-choice'></img></div>\n                <div class='jspsych-image' id='jspsych-image-2' data-choice='2' style='bottom: 0;  left: 0;'><img style=\"width: 100%; height: 100%;\" src='../static/human_exp_images/task_size/19_1.png' class=''></img></div>\n                <div class='jspsych-image' id='jspsych-image-3' data-choice='3' style='bottom: 0;  right: 0;'><img style=\"width: 100%; height: 100%;\" src='../static/human_exp_images/task_size/19_2.png' class=''></img></div>\n\n        </div>","response":null,"trial_type":"html-keyboard-response","trial_index":100,"time_elapsed":132205,"internal_node_id":"0.0-6.0-3.20"},{"rt":1320,"stimulus":"<h1 style='font-size: 60px'>New Rule!</h1> <p>Press any key to begin.</p>","response":" ","trial_type":"html-keyboard-response","trial_index":101,"time_elapsed":133526,"internal_node_id":"0.0-7.0"},{"rt":null,"trial_type":"image-click","trial_index":102,"time_elapsed":133527,"internal_node_id":"0.0-8.0-0.0"},{"rt":3811,"response":2,"all_choices":["../static/human_exp_images/task_contact/00_0.png","../static/human_exp_images/task_contact/00_1.png","../static/human_exp_images/task_contact/00_3.png","../static/human_exp_images/task_contact/00_2.png"],"task":"response","correct_response":2,"shuffled_array":[0,1,3,2],"catch_trial":false,"trial_type":"image-click","trial_index":103,"time_elapsed":137340,"internal_node_id":"0.0-8.0-1.0","mouse_tracking_data":[{"x":893,"y":476,"t":3029,"event":"mousemove"},{"x":895,"y":476,"t":3057,"event":"mousemove"},{"x":893,"y":476,"t":3147,"event":"mousemove"},{"x":890,"y":476,"t":3155,"event":"mousemove"},{"x":888,"y":476,"t":3157,"event":"mousemove"},{"x":881,"y":476,"t":3174,"event":"mousemove"},{"x":869,"y":481,"t":3190,"event":"mousemove"},{"x":861,"y":484,"t":3206,"event":"mousemove"},{"x":859,"y":484,"t":3238,"event":"mousemove"},{"x":857,"y":486,"t":3247,"event":"mousemove"},{"x":854,"y":490,"t":3256,"event":"mousemove"},{"x":852,"y":490,"t":3257,"event":"mousemove"},{"x":846,"y":496,"t":3273,"event":"mousemove"},{"x":837,"y":507,"t":3290,"event":"mousemove"},{"x":834,"y":512,"t":3307,"event":"mousemove"},{"x":828,"y":517,"t":3324,"event":"mousemove"},{"x":825,"y":520,"t":3340,"event":"mousemove"},{"x":823,"y":522,"t":3356,"event":"mousemove"},{"x":820,"y":527,"t":3374,"event":"mousemove"},{"x":815,"y":536,"t":3391,"event":"mousemove"},{"x":805,"y":551,"t":3408,"event":"mousemove"},{"x":798,"y":565,"t":3424,"event":"mousemove"},{"x":791,"y":577,"t":3441,"event":"mousemove"},{"x":787,"y":585,"t":3457,"event":"mousemove"},{"x":784,"y":592,"t":3474,"event":"mousemove"},{"x":782,"y":595,"t":3490,"event":"mousemove"},{"x":781,"y":599,"t":3507,"event":"mousemove"},{"x":777,"y":604,"t":3524,"event":"mousemove"},{"x":776,"y":607,"t":3540,"event":"mousemove"},{"x":774,"y":609,"t":3557,"event":"mousemove"},{"x":774,"y":611,"t":3573,"event":"mousemove"},{"x":772,"y":611,"t":3693,"event":"mousemove"}],"mouse_tracking_targets":{},"correct":true},{"rt":2141,"stimulus":"<p>How confident are you about your choice ?</p>","slider_start":50,"response":83,"trial_type":"html-slider-response","trial_index":104,"time_elapsed":139484,"internal_node_id":"0.0-8.0-2.0"},{"rt":null,"stimulus":"\n        <div id='jspsych-image' style='position: relative; width: min(80vw, 80vh); height: min(80vw, 80vh);'>\n                \n                <div style='position: absolute; top: 40%; left: 30%; bottom: 40%; right: 30%;'><h1 style='font-size: 60px; color: green;'>Correct!</h1></div>\n                \n                <div class='jspsych-image' id='jspsych-image-0' data-choice='0' style='top: 0;     left: 0;'><img style=\"width: 100%; height: 100%;\" src='../static/human_exp_images/task_contact/00_0.png' class=''></img></div>\n                <div class='jspsych-image' id='jspsych-image-1' data-choice='1' style='top: 0;     right: 0;'><img style=\"width: 100%; height: 100%;\" src='../static/human_exp_images/task_contact/00_1.png' class=''></img></div>\n                <div class='jspsych-image' id='jspsych-image-2' data-choice='2' style='bottom: 0;  left: 0;'><img style=\"width: 100%; height: 100%;\" src='../static/human_exp_images/task_contact/00_3.png' class='correct-choice'></img></div>\n                <div class='jspsych-image' id='jspsych-image-3' data-choice='3' style='bottom: 0;  right: 0;'><img style=\"width: 100%; height: 100%;\" src='../static/human_exp_images/task_contact/00_2.png' class=''></img></div>\n\n        </div>","response":null,"trial_type":"html-keyboard-res