[{"success":true,"timeout":false,"failed_images":[],"failed_audio":[],"failed_video":[],"trial_type":"preload","trial_index":0,"time_elapsed":87,"internal_node_id":"0.0-0.0"},{"rt":1602,"stimulus":"<p style='font-size: 40px'>Welcome to the experiment.</p><p style='font-size: 30px'>Press any key to begin.</p>","response":" ","trial_type":"html-keyboard-response","trial_index":1,"time_elapsed":1690,"internal_node_id":"0.0-1.0"},{"rt":753,"stimulus":"\n    <p>In this experiment, 4 images will appear on the screen. 3 out of 4 images were generated with a certain rule while one image (the odd one out) does not respect this rule.</p>\n    <p>Select the odd one out by clicking on the image.</p>\n    <p>Following your choice, you will be asked to rate how confident you were about your choice on a scale from 1 to 100. Then, you will receive feedback on the trial.</p>\n    <p>For each rule you will perform 21 trials. You will be notified at each rule change.</p>\n    <p>The following 3 trials will allow you to get familiar with the odd-one-out task. The experiment starts after this practice session.</p>\n    \n    <p>Press any button to continue</p>\n    <div style='margin: auto; position: relative; width: 400px; height: 400px;'>\n        <div style='position: absolute; top: 0;     left: 0; '><img src='../static/img/square.png'></img></div>\n        <div style='position: absolute; top: 0;     right: 0;'><img src='../static/img/square.png'></img></div>\n        <div style='position: absolute; bottom: 0;  left: 0; '><img src='../static/img/square.png'></img></div>\n        <div style='position: absolute; bottom: 0;  right: 0;'><img src='../static/img/square.png'></img></div>\n    </div>\n","response":" ","trial_type":"html-keyboard-response","trial_index":2,"time_elapsed":2445,"internal_node_id":"0.0-2.0"},{"rt":null,"trial_type":"image-click","trial_index":3,"time_elapsed":5281,"internal_node_id":"0.0-3.0-0.0"},{"rt":3824,"response":1,"all_choices":["../static/human_exp_images/practice_img/00_1.png","../static/human_exp_images/practice_img/00_2.png","../static/human_exp_images/practice_img/00_0.png","../static/human_exp_images/practice_img/00_3.png"],"task":"response","correct_response":3,"shuffled_array":[1,2,0,3],"catch_trial":false,"trial_type":"image-click","trial_index":4,"time_elapsed":9110,"internal_node_id":"0.0-3.0-1.0","mouse_tracking_data":[{"x":1046,"y":430,"t":1,"event":"mousemove"},{"x":1033,"y":430,"t":13,"event":"mousemove"},{"x":1018,"y":430,"t":29,"event":"mousemove"},{"x":1006,"y":430,"t":46,"event":"mousemove"},{"x":991,"y":430,"t":62,"event":"mousemove"},{"x":975,"y":430,"t":79,"event":"mousemove"},{"x":956,"y":434,"t":95,"event":"mousemove"},{"x":945,"y":437,"t":112,"event":"mousemove"},{"x":933,"y":439,"t":129,"event":"mousemove"},{"x":924,"y":441,"t":145,"event":"mousemove"},{"x":921,"y":442,"t":162,"event":"mousemove"},{"x":921,"y":444,"t":259,"event":"mousemove"},{"x":921,"y":446,"t":262,"event":"mousemove"},{"x":921,"y":448,"t":275,"event":"mousemove"},{"x":921,"y":449,"t":280,"event":"mousemove"},{"x":921,"y":451,"t":288,"event":"mousemove"},{"x":922,"y":453,"t":297,"event":"mousemove"},{"x":924,"y":454,"t":299,"event":"mousemove"},{"x":931,"y":456,"t":315,"event":"mousemove"},{"x":938,"y":458,"t":332,"event":"mousemove"},{"x":939,"y":459,"t":348,"event":"mousemove"},{"x":943,"y":459,"t":365,"event":"mousemove"},{"x":945,"y":459,"t":382,"event":"mousemove"},{"x":946,"y":459,"t":473,"event":"mousemove"},{"x":948,"y":459,"t":757,"event":"mousemove"},{"x":948,"y":458,"t":3334,"event":"mousemove"},{"x":950,"y":458,"t":3388,"event":"mousemove"},{"x":951,"y":456,"t":3397,"event":"mousemove"},{"x":953,"y":456,"t":3401,"event":"mousemove"},{"x":955,"y":456,"t":3411,"event":"mousemove"},{"x":956,"y":456,"t":3424,"event":"mousemove"},{"x":958,"y":455,"t":3505,"event":"mousemove"},{"x":958,"y":453,"t":3506,"event":"mousemove"},{"x":965,"y":446,"t":3521,"event":"mousemove"},{"x":974,"y":439,"t":3539,"event":"mousemove"},{"x":996,"y":418,"t":3555,"event":"mousemove"},{"x":1027,"y":389,"t":3572,"event":"mousemove"},{"x":1068,"y":356,"t":3589,"event":"mousemove"},{"x":1098,"y":335,"t":3606,"event":"mousemove"},{"x":1128,"y":310,"t":3622,"event":"mousemove"},{"x":1144,"y":300,"t":3639,"event":"mousemove"},{"x":1163,"y":288,"t":3655,"event":"mousemove"},{"x":1182,"y":278,"t":3672,"event":"mousemove"},{"x":1195,"y":267,"t":3688,"event":"mousemove"},{"x":1202,"y":259,"t":3705,"event":"mousemove"},{"x":1205,"y":252,"t":3722,"event":"mousemove"},{"x":1209,"y":245,"t":3739,"event":"mousemove"},{"x":1209,"y":240,"t":3755,"event":"mousemove"}],"mouse_tracking_targets":{},"correct":false},{"rt":2606,"stimulus":"<p>How confident are you about your choice ?</p>","slider_start":50,"response":66,"trial_type":"html-slider-response","trial_index":5,"time_elapsed":11721,"internal_node_id":"0.0-3.0-2.0"},{"rt":null,"stimulus":"\n        <div id='jspsych-image' style='position: relative; width: min(80vw, 80vh); height: min(80vw, 80vh);'>\n                \n                <div style='position: absolute; top: 40%; left: 30%; bottom: 40%; right: 30%;'><h1 style='font-size: 60px; color: red'>Wrong</h1></div>\n                \n                <div class='jspsych-image' id='jspsych-image-0' data-choice='0' style='top: 0;     left: 0;'><img style=\"width: 100%; height: 100%;\" src='../static/human_exp_images/practice_img/00_1.png' class=''></img></div>\n                <div class='jspsych-image' id='jspsych-image-1' data-choice='1' style='top: 0;     right: 0;'><img style=\"width: 100%; height: 100%;\" src='../static/human_exp_images/practice_img/00_2.png' class='wrong-choice'></img></div>\n                <div class='jspsych-image' id='jspsych-image-2' data-choice='2' style='bottom: 0;  left: 0;'><img style=\"width: 100%; height: 100%;\" src='../static/human_exp_images/practice_img/00_0.png' class=''></img></div>\n                <div class='jspsych-image' id='jspsych-image-3' data-choice='3' style='bottom: 0;  right: 0;'><img style=\"width: 100%; height: 100%;\" src='../static/human_exp_images/practice_img/00_3.png' class='correct-choice'></img></div>\n\n        </div>","response":null,"trial_type":"html-keyboard-response","trial_index":6,"time_elapsed":14222,"internal_node_id":"0.0-3.0-3.0"}]