[{"success":true,"timeout":false,"failed_images":[],"failed_audio":[],"failed_video":[],"trial_type":"preload","trial_index":0,"time_elapsed":463,"internal_node_id":"0.0-0.0"},{"rt":1471,"stimulus":"<p style='font-size: 40px'>Welcome to the experiment.</p><p style='font-size: 30px'>Press any key to begin.</p>","response":" ","trial_type":"html-keyboard-response","trial_index":1,"time_elapsed":1934,"internal_node_id":"0.0-1.0"},{"rt":769,"stimulus":"\n    <p>In this experiment, 4 images will appear on the screen. 3 out of 4 images were generated with a certain rule while one image (the odd one out) does not respect this rule. Select the odd one out by clicking on the image.</p>\n    <p>Following your choice, you will be asked to rate how confident you were about your choice on a scale from 1 to 100. Then, you will receive feedback on the trial.</p>\n    <p>For each rule you will perform 20 trials. You will be notified at each rule change. </p>\n    <p> Press any button to continue </p>\n    <div style='margin: auto; position: relative; width: 400px; height: 400px;'>\n        <div style='position: absolute; top: 0;     left: 0; '><img src='../static/img/square.png'></img></div>\n        <div style='position: absolute; top: 0;     right: 0;'><img src='../static/img/square.png'></img></div>\n        <div style='position: absolute; bottom: 0;  left: 0; '><img src='../static/img/square.png'></img></div>\n        <div style='position: absolute; bottom: 0;  right: 0;'><img src='../static/img/square.png'></img></div>\n    </div>\n","response":" ","trial_type":"html-keyboard-response","trial_index":2,"time_elapsed":2704,"internal_node_id":"0.0-2.0"},{"rt":907,"stimulus":"<h1 style='font-size: 60px'>New Rule!</h1> <p>Press any key to begin.</p>","response":" ","trial_type":"html-keyboard-response","trial_index":3,"time_elapsed":5614,"internal_node_id":"0.0-3.0"},{"rt":841,"response":3,"all_choices":["../static/human_exp_images/task_shape/00_3.png","../static/human_exp_images/task_shape/00_2.png","../static/human_exp_images/task_shape/00_1.png","../static/human_exp_images/task_shape/00_0.png"],"task":"response","correct_response":0,"shuffled_array":[3,2,1,0],"trial_type":"image-click","trial_index":4,"time_elapsed":6460,"internal_node_id":"0.0-4.0-0.0","mouse_tracking_data":[{"x":891,"y":512,"t":445,"event":"mousemove"},{"x":895,"y":512,"t":449,"event":"mousemove"},{"x":899,"y":513,"t":454,"event":"mousemove"},{"x":903,"y":513,"t":456,"event":"mousemove"},{"x":920,"y":523,"t":472,"event":"mousemove"},{"x":936,"y":533,"t":490,"event":"mousemove"},{"x":945,"y":539,"t":506,"event":"mousemove"},{"x":956,"y":545,"t":522,"event":"mousemove"},{"x":963,"y":549,"t":539,"event":"mousemove"},{"x":969,"y":551,"t":556,"event":"mousemove"},{"x":977,"y":553,"t":572,"event":"mousemove"},{"x":986,"y":554,"t":590,"event":"mousemove"},{"x":996,"y":556,"t":606,"event":"mousemove"},{"x":1004,"y":556,"t":622,"event":"mousemove"},{"x":1016,"y":556,"t":640,"event":"mousemove"},{"x":1027,"y":557,"t":656,"event":"mousemove"},{"x":1035,"y":560,"t":672,"event":"mousemove"},{"x":1042,"y":562,"t":689,"event":"mousemove"},{"x":1051,"y":567,"t":706,"event":"mousemove"},{"x":1057,"y":568,"t":724,"event":"mousemove"},{"x":1060,"y":569,"t":740,"event":"mousemove"},{"x":1062,"y":569,"t":757,"event":"mousemove"},{"x":1063,"y":569,"t":772,"event":"mousemove"},{"x":1064,"y":569,"t":832,"event":"mousemove"}],"mouse_tracking_targets":{},"correct":false},{"rt":1135,"stimulus":"<p>How confident are you about your choice ?</p>","slider_start":50,"response":50,"trial_type":"html-slider-response","trial_index":5,"time_elapsed":7595,"internal_node_id":"0.0-4.0-1.0"},{"rt":null,"stimulus":"\n        <div id='jspsych-image' style='position: relative; width: min(80vw, 80vh); height: min(80vw, 80vh);'>\n                \n                <div style='position: absolute; top: 40%; left: 30%; bottom: 40%; right: 30%;'><h1 style='font-size: 60px; color: red'>Wrong</h1></div>\n                \n                <div class='jspsych-image' id='jspsych-image-0' data-choice='0' style='top: 0;     left: 0;'><img style=\"max-width: 100%; max-height: 100%;\" src='../static/human_exp_images/task_shape/00_3.png' class='correct-choice'></img></div>\n                <div class='jspsych-image' id='jspsych-image-1' data-choice='1' style='top: 0;     right: 0;'><img style=\"max-width: 100%; max-height: 100%;\" src='../static/human_exp_images/task_shape/00_2.png' class=''></img></div>\n                <div class='jspsych-image' id='jspsych-image-2' data-choice='2' style='bottom: 0;  left: 0;'><img style=\"max-width: 100%; max-height: 100%;\" src='../static/human_exp_images/task_shape/00_1.png' class=''></img></div>\n                <div class='jspsych-image' id='jspsych-image-3' data-choice='3' style='bottom: 0;  right: 0;'><img style=\"max-width: 100%; max-height: 100%;\" src='../static/human_exp_images/task_shape/00_0.png' class='wrong-choice'></img></div>\n\n        </div>","response":null,"trial_type":"html-keyboard-response","trial_index":6,"time_elapsed":10100,"internal_node_id":"0.0-4.0-2.0"},{"rt":933,"response":2,"all_choices":["../static/human_exp_images/task_shape/01_0.png","../static/human_exp_images/task_shape/01_2.png","../static/human_exp_images/task_shape/01_3.png","../static/human_exp_images/task_shape/01_1.png"],"task":"response","correct_response":2,"shuffled_array":[0,2,3,1],"trial_type":"image-click","trial_index":7,"time_elapsed":11039,"internal_node_id":"0.0-4.0-0.1","mouse_tracking_data":[{"x":932,"y":313,"t":1,"event":"mousemove"},{"x":925,"y":313,"t":12,"event":"mousemove"},{"x":919,"y":313,"t":29,"event":"mousemove"},{"x":904,"y":313,"t":45,"event":"mousemove"},{"x":897,"y":315,"t":62,"event":"mousemove"},{"x":890,"y":322,"t":78,"event":"mousemove"},{"x":876,"y":333,"t":95,"event":"mousemove"},{"x":870,"y":339,"t":112,"event":"mousemove"},{"x":856,"y":353,"t":129,"event":"mousemove"},{"x":846,"y":368,"t":146,"event":"mousemove"},{"x":835,"y":381,"t":162,"event":"mousemove"},{"x":821,"y":403,"t":178,"event":"mousemove"},{"x":809,"y":422,"t":195,"event":"mousemove"},{"x":803,"y":433,"t":212,"event":"mousemove"},{"x":797,"y":445,"t":229,"event":"mousemove"},{"x":795,"y":455,"t":245,"event":"mousemove"},{"x":795,"y":459,"t":262,"event":"mousemove"},{"x":797,"y":459,"t":432,"event":"mousemove"},{"x":798,"y":459,"t":451,"event":"mousemove"},{"x":799,"y":459,"t":478,"event":"mousemove"},{"x":801,"y":459,"t":497,"event":"mousemove"},{"x":801,"y":460,"t":521,"event":"mousemove"},{"x":801,"y":467,"t":524,"event":"mousemove"},{"x":801,"y":470,"t":525,"event":"mousemove"},{"x":801,"y":485,"t":541,"event":"mousemove"},{"x":801,"y":511,"t":558,"event":"mousemove"},{"x":796,"y":530,"t":575,"event":"mousemove"},{"x":787,"y":540,"t":591,"event":"mousemove"},{"x":781,"y":546,"t":607,"event":"mousemove"},{"x":779,"y":546,"t":625,"event":"mousemove"},{"x":779,"y":548,"t":651,"event":"mousemove"},{"x":776,"y":549,"t":660,"event":"mousemove"},{"x":770,"y":555,"t":674,"event":"mousemove"},{"x":757,"y":567,"t":691,"event":"mousemove"},{"x":744,"y":575,"t":709,"event":"mousemove"},{"x":740,"y":579,"t":725,"event":"mousemove"},{"x":737,"y":581,"t":742,"event":"mousemove"},{"x":733,"y":582,"t":758,"event":"mousemove"},{"x":732,"y":582,"t":834,"event":"mousemove"}],"mouse_tracking_targets":{},"correct":true},{"rt":781,"stimulus":"<p>How confident are you about your choice ?</p>","slider_start":50,"response":50,"trial_type":"html-slider-response","trial_index":8,"time_elapsed":11819,"internal_node_id":"0.0-4.0-1.1"},{"rt":null,"stimulus":"\n        <div id='jspsych-image' style='position: relative; width: min(80vw, 80vh); height: min(80vw, 80vh);'>\n                \n                <div style='position: absolute; top: 40%; left: 30%; bottom: 40%; right: 30%;'><h1 style='font-size: 60px; color: green;'>Correct!</h1></div>\n                \n                <div class='jspsych-image' id='jspsych-image-0' data-choice='0' style='top: 0;     left: 0;'><img style=\"max-width: 100%; max-height: 100%;\" src='../static/human_exp_images/task_shape/01_0.png' class=''></img></div>\n                <div class='jspsych-image' id='jspsych-image-1' data-choice='1' style='top: 0;     right: 0;'><img style=\"max-width: 100%; max-height: 100%;\" src='../static/human_exp_images/task_shape/01_2.png' class=''></img></div>\n                <div class='jspsych-image' id='jspsych-image-2' data-choice='2' style='bottom: 0;  left: 0;'><img style=\"max-width: 100%; max-height: 100%;\" src='../static/human_exp_images/task_shape/01_3.png' class='correct-choice'></img></div>\n                <div class='jspsych-image' id='jspsych-image-3' data-choice='3' style='bottom: 0;  right: 0;'><img style=\"max-width: 100%; max-height: 100%;\" src='../static/human_exp_images/task_shape/01_1.png' class=''></img></div>\n\n        </div>","response":null,"trial_type":"html-keyboard-response","trial_index":9,"time_elapsed":13322,"internal_node_id":"0.0-4.0-2.1"},{"rt":1010,"response":1,"all_choices":["../static/human_exp_images/task_shape/02_2.png","../static/human_exp_images/task_shape/02_1.png","../static/human_exp_images/task_shape/02_3.png","../static/human_exp_images/task_shape/02_0.png"],"task":"response","correct_response":2,"shuffled_array":[2,1,3,0],"trial_type":"image-click","trial_index":10,"time_elapsed":14334,"internal_node_id":"0.0-4.0-0.2","mouse_tracking_data":[{"x":1052,"y":229,"t":359,"event":"mousemove"},{"x":1051,"y":229,"t":710,"event":"mousemove"},{"x":1050,"y":230,"t":716,"event":"mousemove"},{"x":1049,"y":230,"t":724,"event":"mousemove"},{"x":1049,"y":232,"t":725,"event":"mousemove"},{"x":1049,"y":230,"t":806,"event":"mousemove"},{"x":1049,"y":225,"t":808,"event":"mousemove"},{"x":1053,"y":213,"t":824,"event":"mousemove"},{"x":1064,"y":199,"t":841,"event":"mousemove"},{"x":1072,"y":188,"t":857,"event":"mousemove"},{"x":1075,"y":182,"t":875,"event":"mousemove"},{"x":1075,"y":180,"t":890,"event":"mousemove"},{"x":1077,"y":180,"t":907,"event":"mousemove"}],"mouse_tracking_targets":{},"correct":false},{"rt":815,"stimulus":"<p>How confident are you about your choice ?</p>","slider_start":50,"response":50,"trial_type":"html-slider-response","trial_index":11,"time_elapsed":15152,"internal_node_id":"0.0-4.0-1.2"},{"rt":null,"stimulus":"\n        <div id='jspsych-image' style='position: relative; width: min(80vw, 80vh); height: min(80vw, 80vh);'>\n                \n                <div style='position: absolute; top: 40%; left: 30%; bottom: 40%; right: 30%;'><h1 style='font-size: 60px; color: red'>Wrong</h1></div>\n                \n                <div class='jspsych-image' id='jspsych-image-0' data-choice='0' style='top: 0;     left: 0;'><img style=\"max-width: 100%; max-height: 100%;\" src='../static/human_exp_images/task_shape/02_2.png' class=''></img></div>\n                <div class='jspsych-image' id='jspsych-image-1' data-choice='1' style='top: 0;     right: 0;'><img style=\"max-width: 100%; max-height: 100%;\" src='../static/human_exp_images/task_shape/02_1.png' class='wrong-choice'></img></div>\n                <div class='jspsych-image' id='jspsych-image-2' data-choice='2' style='bottom: 0;  left: 0;'><img style=\"max-width: 100%; max-height: 100%;\" src='../static/human_exp_images/task_shape/02_3.png' class='correct-choice'></img></div>\n                <div class='jspsych-image' id='jspsych-image-3' data-choice='3' style='bottom: 0;  right: 0;'><img style=\"max-width: 100%; max-height: 100%;\" src='../static/human_exp_images/task_shape/02_0.png' class=''></img></div>\n\n        </div>","response":null,"trial_type":"html-keyboard-response","trial_index":12,"time_elapsed":17654,"internal_node_id":"0.0-4.0-2.2"},{"rt":308,"stimulus":"<h1 style='font-size: 60px'>New Rule!</h1> <p>Press any key to begin.</p>","response":" ","trial_type":"html-keyboard-response","trial_index":13,"time_elapsed":17964,"internal_node_id":"0.0-5.0"},{"rt":847,"response":1,"all_choices":["../static/human_exp_images/task_pos/00_1.png","../static/human_exp_images/task_pos/00_2.png","../static/human_exp_images/task_pos/00_3.png","../static/human_exp_images/task_pos/00_0.png"],"task":"response","correct_response":2,"shuffled_array":[1,2,3,0],"trial_type":"image-click","trial_index":14,"time_elapsed":18813,"internal_node_id":"0.0-6.0-0.0","mouse_tracking_data":[{"x":1009,"y":249,"t":592,"event":"mousemove"},{"x":1009,"y":246,"t":597,"event":"mousemove"},{"x":1009,"y":237,"t":603,"event":"mousemove"},{"x":1009,"y":231,"t":604,"event":"mousemove"},{"x":1018,"y":207,"t":620,"event":"mousemove"},{"x":1032,"y":188,"t":638,"event":"mousemove"},{"x":1039,"y":182,"t":654,"event":"mousemove"},{"x":1045,"y":178,"t":671,"event":"mousemove"},{"x":1050,"y":176,"t":686,"event":"mousemove"},{"x":1053,"y":175,"t":703,"event":"mousemove"},{"x":1056,"y":171,"t":720,"event":"mousemove"},{"x":1058,"y":171,"t":737,"event":"mousemove"}],"mouse_tracking_targets":{},"correct":false},{"rt":1061,"stimulus":"<p>How confident are you about your choice ?</p>","slider_start":50,"response":50,"trial_type":"html-slider-response","trial_index":15,"time_elapsed":19875,"internal_node_id":"0.0-6.0-1.0"},{"rt":null,"stimulus":"\n        <div id='jspsych-image' style='position: relative; width: min(80vw, 80vh); height: min(80vw, 80vh);'>\n                \n                <div style='position: absolute; top: 40%; left: 30%; bottom: 40%; right: 30%;'><h1 style='font-size: 60px; color: red'>Wrong</h1></div>\n                \n                <div class='jspsych-image' id='jspsych-image-0' data-choice='0' style='top: 0;     left: 0;'><img style=\"max-width: 100%; max-height: 100%;\" src='../static/human_exp_images/task_pos/00_1.png' class=''></img></div>\n                <div class='jspsych-image' id='jspsych-image-1' data-choice='1' style='top: 0;     right: 0;'><img style=\"max-width: 100%; max-height: 100%;\" src='../static/human_exp_images/task_pos/00_2.png' class='wrong-choice'></img></div>\n                <div class='jspsych-image' id='jspsych-image-2' data-choice='2' style='bottom: 0;  left: 0;'><img style=\"max-width: 100%; max-height: 100%;\" src='../static/human_exp_images/task_pos/00_3.png' class='correct-choice'></img></div>\n                <div class='jspsych-image' id='jspsych-image-3' data-choice='3' style='bottom: 0;  right: 0;'><img style=\"max-width: 100%; max-height: 100%;\" src='../static/human_exp_images/task_pos/00_0.png' class=''></img></div>\n\n        </div>","response":null,"trial_type":"html-keyboard-response","trial_index":16,"time_elapsed":22378,"internal_node_id":"0.0-6.0-2.0"},{"rt":791,"response":1,"all_choices":["../static/human_exp_images/task_pos/01_3.png","../static/human_exp_images/task_pos/01_2.png","../static/human_exp_images/task_pos/01_1.png","../static/human_exp_images/task_pos/01_0.png"],"task":"response","correct_response":0,"shuffled_array":[3,2,1,0],"trial_type":"image-click","trial_index":17,"time_elapsed":23171,"internal_node_id":"0.0-6.0-0.1","mouse_tracking_data":[{"x":973,"y":410,"t":42,"event":"mousemove"},{"x":974,"y":408,"t":50,"event":"mousemove"},{"x":975,"y":404,"t":66,"event":"mousemove"},{"x":980,"y":400,"t":81,"event":"mousemove"},{"x":982,"y":397,"t":99,"event":"mousemove"},{"x":984,"y":393,"t":115,"event":"mousemove"},{"x":984,"y":392,"t":133,"event":"mousemove"},{"x":984,"y":391,"t":196,"event":"mousemove"},{"x":984,"y":389,"t":224,"event":"mousemove"},{"x":984,"y":388,"t":379,"event":"mousemove"},{"x":985,"y":386,"t":388,"event":"mousemove"},{"x":986,"y":386,"t":391,"event":"mousemove"},{"x":988,"y":384,"t":396,"event":"mousemove"},{"x":990,"y":383,"t":400,"event":"mousemove"},{"x":991,"y":380,"t":405,"event":"mousemove"},{"x":993,"y":378,"t":414,"event":"mousemove"},{"x":995,"y":377,"t":415,"event":"mousemove"},{"x":996,"y":373,"t":432,"event":"mousemove"},{"x":1006,"y":364,"t":448,"event":"mousemove"},{"x":1018,"y":351,"t":465,"event":"mousemove"},{"x":1028,"y":342,"t":482,"event":"mousemove"},{"x":1036,"y":329,"t":498,"event":"mousemove"},{"x":1043,"y":318,"t":514,"event":"mousemove"},{"x":1048,"y":307,"t":532,"event":"mousemove"},{"x":1049,"y":303,"t":548,"event":"mousemove"},{"x":1054,"y":294,"t":565,"event":"mousemove"},{"x":1055,"y":287,"t":581,"event":"mousemove"},{"x":1060,"y":274,"t":598,"event":"mousemove"},{"x":1064,"y":262,"t":615,"event":"mousemove"},{"x":1070,"y":246,"t":632,"event":"mousemove"},{"x":1073,"y":235,"t":648,"event":"mousemove"},{"x":1077,"y":223,"t":665,"event":"mousemove"},{"x":1077,"y":217,"t":681,"event":"mousemove"},{"x":1077,"y":216,"t":699,"event":"mousemove"},{"x":1077,"y":215,"t":790,"event":"mousemove"}],"mouse_tracking_targets":{},"correct":false},{"rt":1118,"stimulus":"<p>How confident are you about your choice ?</p>","slider_start":50,"response":50,"trial_type":"html-slider-response","trial_index":18,"time_elapsed":24290,"internal_node_id":"0.0-6.0-1.1"},{"rt":null,"stimulus":"\n        <div id='jspsych-image' style='position: relative; width: min(80vw, 80vh); height: min(80vw, 80vh);'>\n                \n                <div style='position: absolute; top: 40%; left: 30%; bottom: 40%; right: 30%;'><h1 style='font-size: 60px; color: red'>Wrong</h1></div>\n                \n                <div class='jspsych-image' id='jspsych-image-0' data-choice='0' style='top: 0;     left: 0;'><img style=\"max-width: 100%; max-height: 100%;\" src='../static/human_exp_images/task_pos/01_3.png' class='correct-choice'></img></div>\n                <div class='jspsych-image' id='jspsych-image-1' data-choice='1' style='top: 0;     right: 0;'><img style=\"max-width: 100%; max-height: 100%;\" src='../static/human_exp_images/task_pos/01_2.png' class='wrong-choice'></img></div>\n                <div class='jspsych-image' id='jspsych-image-2' data-choice='2' style='bottom: 0;  left: 0;'><img style=\"max-width: 100%; max-height: 100%;\" src='../static/human_exp_images/task_pos/01_1.png' class=''></img></div>\n                <div class='jspsych-image' id='jspsych-image-3' data-choice='3' style='bottom: 0;  right: 0;'><img style=\"max-width: 100%; max-height: 100%;\" src='../static/human_exp_images/task_pos/01_0.png' class=''></img></div>\n\n        </div>","response":null,"trial_type":"html-keyboard-response","trial_index":19,"time_elapsed":26790,"internal_node_id":"0.0-6.0-2.1"},{"rt":856,"response":3,"all_choices":["../static/human_exp_images/task_pos/02_1.png","../static/human_exp_images/task_pos/02_0.png","../static/human_exp_images/task_pos/02_3.png","../static/human_exp_images/task_pos/02_2.png"],"task":"response","correct_response":2,"shuffled_array":[1,0,3,2],"trial_type":"image-click","trial_index":20,"time_elapsed":27649,"internal_node_id":"0.0-6.0-0.2","mouse_tracking_data":[{"x":937,"y":501,"t":6,"event":"mousemove"},{"x":941,"y":497,"t":21,"event":"mousemove"},{"x":941,"y":495,"t":38,"event":"mousemove"},{"x":941,"y":494,"t":134,"event":"mousemove"},{"x":941,"y":494,"t":143,"event":"mousemove"},{"x":941,"y":492,"t":223,"event":"mousemove"},{"x":941,"y":490,"t":242,"event":"mousemove"},{"x":941,"y":490,"t":251,"event":"mousemove"},{"x":943,"y":486,"t":259,"event":"mousemove"},{"x":943,"y":484,"t":260,"event":"mousemove"},{"x":945,"y":483,"t":268,"event":"mousemove"},{"x":945,"y":481,"t":269,"event":"mousemove"},{"x":945,"y":479,"t":278,"event":"mousemove"},{"x":946,"y":479,"t":280,"event":"mousemove"},{"x":946,"y":477,"t":286,"event":"mousemove"},{"x":948,"y":475,"t":298,"event":"mousemove"},{"x":948,"y":472,"t":307,"event":"mousemove"},{"x":948,"y":468,"t":316,"event":"mousemove"},{"x":950,"y":468,"t":318,"event":"mousemove"},{"x":952,"y":459,"t":334,"event":"mousemove"},{"x":952,"y":457,"t":350,"event":"mousemove"},{"x":952,"y":453,"t":368,"event":"mousemove"},{"x":952,"y":452,"t":384,"event":"mousemove"},{"x":956,"y":452,"t":509,"event":"mousemove"},{"x":961,"y":452,"t":517,"event":"mousemove"},{"x":962,"y":452,"t":521,"event":"mousemove"},{"x":967,"y":452,"t":526,"event":"mousemove"},{"x":970,"y":452,"t":527,"event":"mousemove"},{"x":981,"y":452,"t":543,"event":"mousemove"},{"x":1006,"y":446,"t":560,"event":"mousemove"},{"x":1030,"y":443,"t":576,"event":"mousemove"},{"x":1052,"y":443,"t":593,"event":"mousemove"},{"x":1064,"y":451,"t":610,"event":"mousemove"},{"x":1076,"y":483,"t":626,"event":"mousemove"},{"x":1081,"y":498,"t":642,"event":"mousemove"},{"x":1086,"y":514,"t":660,"event":"mousemove"},{"x":1089,"y":527,"t":677,"event":"mousemove"},{"x":1093,"y":537,"t":693,"event":"mousemove"},{"x":1095,"y":546,"t":710,"event":"mousemove"},{"x":1095,"y":549,"t":727,"event":"mousemove"},{"x":1097,"y":549,"t":744,"event":"mousemove"}],"mouse_tracking_targets":{},"correct":false},{"rt":755,"stimulus":"<p>How confident are you about your choice ?</p>","slider_start":50,"response":50,"trial_type":"html-slider-response","trial_index":21,"time_elapsed":28405,"internal_node_id":"0.0-6.0-1.2"},{"rt":null,"stimulus":"\n        <div id='jspsych-image' style='position: relative; width: min(80vw, 80vh); height: min(80vw, 80vh);'>\n                \n                <div style='position: absolute; top: 40%; left: 30%; bottom: 40%; right: 30%;'><h1 style='font-size: 60px; color: red'>Wrong</h1></div>\n                \n                <div class='jspsych-image' id='jspsych-image-0' data-choice='0' style='top: 0;     left: 0;'><img style=\"max-width: 100%; max-height: 100%;\" src='../static/human_exp_images/task_pos/02_1.png' class=''></img></div>\n                <div class='jspsych-image' id='jspsych-image-1' data-choice='1' style='top: 0;     right: 0;'><img style=\"max-width: 100%; max-height: 100%;\" src='../static/human_exp_images/task_pos/02_0.png' class=''></img></div>\n                <div class='jspsych-image' id='jspsych-image-2' data-choice='2' style='bottom: 0;  left: 0;'><img style=\"max-width: 100%; max-height: 100%;\" src='../static/human_exp_images/task_pos/02_3.png' class='correct-choice'></img></div>\n                <div class='jspsych-image' id='jspsych-image-3' data-choice='3' style='bottom: 0;  right: 0;'><img style=\"max-width: 100%; max-height: 100%;\" src='../static/human_exp_images/task_pos/02_2.png' class='wrong-choice'></img></div>\n\n        </div>","response":null,"trial_type":"html-keyboard-response","trial_index":22,"time_elapsed":30907,"internal_node_id":"0.0-6.0-2.2"},{"rt":192,"stimulus":"<h1 style='font-size: 60px'>New Rule!</h1> <p>Press any key to begin.</p>","response":" ","trial_type":"html-keyboard-response","trial_index":23,"time_elapsed":31101,"internal_node_id":"0.0-7.0"},{"rt":1014,"response":3,"all_choices":["../static/human_exp_images/task_pos_shape_1/00_3.png","../static/human_exp_images/task_pos_shape_1/00_2.png","../static/human_exp_images/task_pos_shape_1/00_0.png","../static/human_exp_images/task_pos_shape_1/00_1.png"],"task":"response","correct_response":0,"shuffled_array":[3,2,0,1],"trial_type":"image-click","trial_index":24,"time_elapsed":32118,"internal_node_id":"0.0-8.0-0.0","mouse_tracking_data":[{"x":1007,"y":559,"t":775,"event":"mousemove"},{"x":1009,"y":559,"t":783,"event":"mousemove"},{"x":1013,"y":559,"t":796,"event":"mousemove"},{"x":1014,"y":559,"t":796,"event":"mousemove"},{"x":1024,"y":559,"t":812,"event":"mousemove"},{"x":1029,"y":559,"t":829,"event":"mousemove"},{"x":1035,"y":559,"t":845,"event":"mousemove"},{"x":1044,"y":559,"t":862,"event":"mousemove"},{"x":1055,"y":559,"t":879,"event":"mousemove"},{"x":1062,"y":559,"t":896,"event":"mousemove"},{"x":1073,"y":559,"t":913,"event":"mousemove"},{"x":1075,"y":559,"t":929,"event":"mousemove"},{"x":1077,"y":559,"t":947,"event":"mousemove"},{"x":1078,"y":559,"t":976,"event":"mousemove"}],"mouse_tracking_targets":{},"correct":false},{"rt":753,"stimulus":"<p>How confident are you about your choice ?</p>","slider_start":50,"response":50,"trial_type":"html-slider-response","trial_index":25,"time_elapsed":32873,"internal_node_id":"0.0-8.0-1.0"},{"rt":null,"stimulus":"\n        <div id='jspsych-image' style='position: relative; width: min(80vw, 80vh); height: min(80vw, 80vh);'>\n                \n                <div style='position: absolute; top: 40%; left: 30%; bottom: 40%; right: 30%;'><h1 style='font-size: 60px; color: red'>Wrong</h1></div>\n                \n                <div class='jspsych-image' id='jspsych-image-0' data-choice='0' style='top: 0;     left: 0;'><img style=\"max-width: 100%; max-height: 100%;\" src='../static/human_exp_images/task_pos_shape_1/00_3.png' class='correct-choice'></img></div>\n                <div class='jspsych-image' id='jspsych-image-1' data-choice='1' style='top: 0;     right: 0;'><img style=\"max-width: 100%; max-height: 100%;\" src='../static/human_exp_images/task_pos_shape_1/00_2.png' class=''></img></div>\n                <div class='jspsych-image' id='jspsych-image-2' data-choice='2' style='bottom: 0;  left: 0;'><img style=\"max-width: 100%; max-height: 100%;\" src='../static/human_exp_images/task_pos_shape_1/00_0.png' class=''></img></div>\n                <div class='jspsych-image' id='jspsych-image-3' data-choice='3' style='bottom: 0;  right: 0;'><img style=\"max-width: 100%; max-height: 100%;\" src='../static/human_exp_images/task_pos_shape_1/00_1.png' class='wrong-choice'></img></div>\n\n        </div>","response":null,"trial_type":"html-keyboard-response","trial_index":26,"time_elapsed":35374,"internal_node_id":"0.0-8.0-2.0"},{"rt":994,"response":1,"all_choices":["../static/human_exp_images/task_pos_shape_1/01_0.png","../static/human_exp_images/task_pos_shape_1/01_3.png","../static/human_exp_images/task_pos_shape_1/01_1.png","../static/human_exp_images/task_pos_shape_1/01_2.png"],"task":"response","correct_response":1,"shuffled_array":[0,3,1,2],"trial_type":"image-click","trial_index":27,"time_elapsed":36372,"internal_node_id":"0.0-8.0-0.1","mouse_tracking_data":[{"x":1095,"y":160,"t":70,"event":"mousemove"},{"x":1095,"y":166,"t":80,"event":"mousemove"},{"x":1085,"y":179,"t":96,"event":"mousemove"},{"x":1078,"y":189,"t":115,"event":"mousemove"},{"x":1073,"y":197,"t":130,"event":"mousemove"},{"x":1069,"y":204,"t":147,"event":"mousemove"},{"x":1065,"y":208,"t":163,"event":"mousemove"},{"x":1065,"y":210,"t":180,"event":"mousemove"},{"x":1063,"y":213,"t":232,"event":"mousemove"},{"x":1063,"y":215,"t":234,"event":"mousemove"},{"x":1061,"y":224,"t":250,"event":"mousemove"},{"x":1058,"y":232,"t":266,"event":"mousemove"},{"x":1054,"y":244,"t":282,"event":"mousemove"},{"x":1054,"y":252,"t":299,"event":"mousemove"},{"x":1052,"y":259,"t":316,"event":"mousemove"},{"x":1051,"y":261,"t":333,"event":"mousemove"},{"x":1051,"y":263,"t":350,"event":"mousemove"},{"x":1050,"y":264,"t":366,"event":"mousemove"},{"x":1047,"y":274,"t":383,"event":"mousemove"},{"x":1039,"y":295,"t":399,"event":"mousemove"},{"x":1032,"y":314,"t":416,"event":"mousemove"},{"x":1026,"y":328,"t":432,"event":"mousemove"},{"x":1018,"y":341,"t":450,"event":"mousemove"},{"x":1016,"y":345,"t":467,"event":"mousemove"},{"x":1012,"y":347,"t":483,"event":"mousemove"},{"x":1011,"y":347,"t":569,"event":"mousemove"},{"x":1011,"y":343,"t":596,"event":"mousemove"},{"x":1011,"y":339,"t":600,"event":"mousemove"},{"x":1011,"y":302,"t":617,"event":"mousemove"},{"x":1014,"y":268,"t":634,"event":"mousemove"},{"x":1029,"y":233,"t":650,"event":"mousemove"},{"x":1034,"y":221,"t":666,"event":"mousemove"},{"x":1038,"y":218,"t":684,"event":"mousemove"},{"x":1038,"y":215,"t":699,"event":"mousemove"},{"x":1039,"y":215,"t":717,"event":"mousemove"},{"x":1043,"y":212,"t":733,"event":"mousemove"},{"x":1050,"y":207,"t":750,"event":"mousemove"},{"x":1054,"y":203,"t":767,"event":"mousemove"},{"x":1058,"y":201,"t":783,"event":"mousemove"},{"x":1067,"y":193,"t":801,"event":"mousemove"},{"x":1073,"y":185,"t":817,"event":"mousemove"},{"x":1090,"y":169,"t":834,"event":"mousemove"},{"x":1101,"y":158,"t":850,"event":"mousemove"},{"x":1107,"y":151,"t":867,"event":"mousemove"},{"x":1109,"y":147,"t":883,"event":"mousemove"},{"x":1111,"y":145,"t":901,"event":"mousemove"}],"mouse_tracking_targets":{},"correct":true},{"rt":1062,"stimulus":"<p>How confident are you about your choice ?</p>","slider_start":50,"response":50,"trial_type":"html-slider-response","trial_index":28,"time_elapsed":37435,"internal_node_id":"0.0-8.0-1.1"},{"rt":null,"stimulus":"\n        <div id='jspsych-image' style='position: relative; width: min(80vw, 80vh); height: min(80vw, 80vh);'>\n                \n                <div style='position: absolute; top: 40%; left: 30%; bottom: 40%; right: 30%;'><h1 style='font-size: 60px; color: green;'>Correct!</h1></div>\n                \n                <div class='jspsych-image' id='jspsych-image-0' data-choice='0' style='top: 0;     left: 0;'><img style=\"max-width: 100%; max-height: 100%;\" src='../static/human_exp_images/task_pos_shape_1/01_0.png' class=''></img></div>\n                <div class='jspsych-image' id='jspsych-image-1' data-choice='1' style='top: 0;     right: 0;'><img style=\"max-width: 100%; max-height: 100%;\" src='../static/human_exp_images/task_pos_shape_1/01_3.png' class='correct-choice'></img></div>\n                <div class='jspsych-image' id='jspsych-image-2' data-choice='2' style='bottom: 0;  left: 0;'><img style=\"max-width: 100%; max-height: 100%;\" src='../static/human_exp_images/task_pos_shape_1/01_1.png' class=''></img></div>\n                <div class='jspsych-image' id='jspsych-image-3' data-choice='3' style='bottom: 0;  right: 0;'><img style=\"max-width: 100%; max-height: 100%;\" src='../static/human_exp_images/task_pos_shape_1/01_2.png' class=''></img></div>\n\n        </div>","response":null,"trial_type":"html-keyboard-response","trial_index":29,"time_elapsed":38938,"internal_node_id":"0.0-8.0-2.1"},{"rt":857,"response":1,"all_choices":["../static/human_exp_images/task_pos_shape_1/02_0.png","../static/human_exp_images/task_pos_shape_1/02_2.png","../static/human_exp_images/task_pos_shape_1/02_1.png","../static/human_exp_images/task_pos_shape_1/02_3.png"],"task":"response","correct_response":3,"shuffled_array":[0,2,1,3],"trial_type":"image-click","trial_index":30,"time_elapsed":39797,"internal_node_id":"0.0-8.0-0.2","mouse_tracking_data":[{"x":1073,"y":562,"t":312,"event":"mousemove"},{"x":1074,"y":562,"t":332,"event":"mousemove"},{"x":1076,"y":562,"t":342,"event":"mousemove"},{"x":1076,"y":561,"t":349,"event":"mousemove"},{"x":1076,"y":559,"t":352,"event":"mousemove"},{"x":1078,"y":551,"t":357,"event":"mousemove"},{"x":1078,"y":546,"t":358,"event":"mousemove"},{"x":1080,"y":535,"t":366,"event":"mousemove"},{"x":1080,"y":529,"t":367,"event":"mousemove"},{"x":1080,"y":516,"t":375,"event":"mousemove"},{"x":1080,"y":509,"t":377,"event":"mousemove"},{"x":1083,"y":495,"t":383,"event":"mousemove"},{"x":1083,"y":488,"t":387,"event":"mousemove"},{"x":1083,"y":474,"t":397,"event":"mousemove"},{"x":1083,"y":431,"t":404,"event":"mousemove"},{"x":1083,"y":385,"t":422,"event":"mousemove"},{"x":1083,"y":357,"t":438,"event":"mousemove"},{"x":1083,"y":324,"t":455,"event":"mousemove"},{"x":1083,"y":304,"t":471,"event":"mousemove"},{"x":1083,"y":295,"t":488,"event":"mousemove"},{"x":1083,"y":287,"t":505,"event":"mousemove"},{"x":1083,"y":279,"t":521,"event":"mousemove"},{"x":1083,"y":270,"t":539,"event":"mousemove"},{"x":1083,"y":263,"t":554,"event":"mousemove"},{"x":1083,"y":254,"t":571,"event":"mousemove"},{"x":1083,"y":241,"t":589,"event":"mousemove"},{"x":1083,"y":231,"t":606,"event":"mousemove"},{"x":1083,"y":220,"t":622,"event":"mousemove"},{"x":1083,"y":204,"t":638,"event":"mousemove"},{"x":1083,"y":198,"t":656,"event":"mousemove"},{"x":1083,"y":183,"t":672,"event":"mousemove"},{"x":1083,"y":170,"t":689,"event":"mousemove"},{"x":1083,"y":159,"t":706,"event":"mousemove"},{"x":1083,"y":152,"t":722,"event":"mousemove"},{"x":1083,"y":149,"t":738,"event":"mousemove"},{"x":1083,"y":148,"t":765,"event":"mousemove"}],"mouse_tracking_targets":{},"correct":false},{"rt":837,"stimulus":"<p>How confident are you about your choice ?</p>","slider_start":50,"response":50,"trial_type":"html-slider-response","trial_index":31,"time_elapsed":40634,"internal_node_id":"0.0-8.0-1.2"},{"rt":null,"stimulus":"\n        <div id='jspsych-image' style='position: relative; width: min(80vw, 80vh); height: min(80vw, 80vh);'>\n                \n                <div style='position: absolute; top: 40%; left: 30%; bottom: 40%; right: 30%;'><h1 style='font-size: 60px; color: red'>Wrong</h1></div>\n                \n                <div class='jspsych-image' id='jspsych-image-0' data-choice='0' style='top: 0;     left: 0;'><img style=\"max-width: 100%; max-height: 100%;\" src='../static/human_exp_images/task_pos_shape_1/02_0.png' class=''></img></div>\n                <div class='jspsych-image' id='jspsych-image-1' data-choice='1' style='top: 0;     right: 0;'><img style=\"max-width: 100%; max-height: 100%;\" src='../static/human_exp_images/task_pos_shape_1/02_2.png' class='wrong-choice'></img></div>\n                <div class='jspsych-image' id='jspsych-image-2' data-choice='2' style='bottom: 0;  left: 0;'><img style=\"max-width: 100%; max-height: 100%;\" src='../static/human_exp_images/task_pos_shape_1/02_1.png' class=''></img></div>\n                <div class='jspsych-image' id='jspsych-image-3' data-choice='3' style='bottom: 0;  right: 0;'><img style=\"max-width: 100%; max-height: 100%;\" src='../static/human_exp_images/task_pos_shape_1/02_3.png' class='correct-choice'></img></div>\n\n        </div>","response":null,"trial_type":"html-keyboard-response","trial_index":32,"time_elapsed":43137,"internal_node_id":"0.0-8.0-2.2"},{"rt":827,"stimulus":"<h1 style='font-size: 60px'>New Rule!</h1> <p>Press any key to begin.</p>","response":" ","trial_type":"html-keyboard-response","trial_index":33,"time_elapsed":43967,"internal_node_id":"0.0-9.0"},{"rt":843,"response":1,"all_choices":["../static/human_exp_images/task_shape_color_3/00_0.png","../static/human_exp_images/task_shape_color_3/00_3.png","../static/human_exp_images/task_shape_color_3/00_1.png","../static/human_exp_images/task_shape_color_3/00_2.png"],"task":"response","correct_response":1,"shuffled_array":[0,3,1,2],"trial_type":"image-click","trial_index":34,"time_elapsed":44810,"internal_node_id":"0.0-10.0-0.0","mouse_tracking_data":[{"x":981,"y":355,"t":477,"event":"mousemove"},{"x":981,"y":350,"t":485,"event":"mousemove"},{"x":981,"y":344,"t":495,"event":"mousemove"},{"x":981,"y":341,"t":498,"event":"mousemove"},{"x":981,"y":335,"t":503,"event":"mousemove"},{"x":981,"y":331,"t":508,"event":"mousemove"},{"x":983,"y":324,"t":512,"event":"mousemove"},{"x":985,"y":320,"t":514,"event":"mousemove"},{"x":988,"y":313,"t":522,"event":"mousemove"},{"x":990,"y":309,"t":529,"event":"mousemove"},{"x":995,"y":300,"t":539,"event":"mousemove"},{"x":1003,"y":280,"t":557,"event":"mousemove"},{"x":1014,"y":265,"t":573,"event":"mousemove"},{"x":1021,"y":255,"t":590,"event":"mousemove"},{"x":1027,"y":247,"t":606,"event":"mousemove"},{"x":1033,"y":244,"t":623,"event":"mousemove"},{"x":1040,"y":237,"t":639,"event":"mousemove"},{"x":1046,"y":231,"t":657,"event":"mousemove"},{"x":1052,"y":226,"t":674,"event":"mousemove"},{"x":1060,"y":217,"t":689,"event":"mousemove"},{"x":1066,"y":213,"t":707,"event":"mousemove"},{"x":1068,"y":209,"t":723,"event":"mousemove"},{"x":1071,"y":206,"t":741,"event":"mousemove"}],"mouse_tracking_targets":{},"correct":true},{"rt":843,"stimulus":"<p>How confident are you about your choice ?</p>","slider_start":50,"response":50,"trial_type":"html-slider-response","trial_index":35,"time_elapsed":45655,"internal_node_id":"0.0-10.0-1.0"},{"rt":null,"stimulus":"\n        <div id='jspsych-image' style='position: relative; width: min(80vw, 80vh); height: min(80vw, 80vh);'>\n                \n                <div style='position: absolute; top: 40%; left: 30%; bottom: 40%; right: 30%;'><h1 style='font-size: 60px; color: green;'>Correct!</h1></div>\n                \n                <div class='jspsych-image' id='jspsych-image-0' data-choice='0' style='top: 0;     left: 0;'><img style=\"max-width: 100%; max-height: 100%;\" src='../static/human_exp_images/task_shape_color_3/00_0.png' class=''></img></div>\n                <div class='jspsych-image' id='jspsych-image-1' data-choice='1' style='top: 0;     right: 0;'><img style=\"max-width: 100%; max-height: 100%;\" src='../static/human_exp_images/task_shape_color_3/00_3.png' class='correct-choice'></img></div>\n                <div class='jspsych-image' id='jspsych-image-2' data-choice='2' style='bottom: 0;  left: 0;'><img style=\"max-width: 100%; max-height: 100%;\" src='../static/human_exp_images/task_shape_color_3/00_1.png' class=''></img></div>\n                <div class='jspsych-image' id='jspsych-image-3' data-choice='3' style='bottom: 0;  right: 0;'><img style=\"max-width: 100%; max-height: 100%;\" src='../static/human_exp_images/task_shape_color_3/00_2.png' class=''></img></div>\n\n        </div>","response":null,"trial_type":"html-keyboard-response","trial_index":36,"time_elapsed":47157,"internal_node_id":"0.0-10.0-2.0"},{"rt":540,"response":1,"all_choices":["../static/human_exp_images/task_shape_color_3/01_3.png","../static/human_exp_images/task_shape_color_3/01_1.png","../static/human_exp_images/task_shape_color_3/01_0.png","../static/human_exp_images/task_shape_color_3/01_2.png"],"task":"response","correct_response":0,"shuffled_array":[3,1,0,2],"trial_type":"image-click","trial_index":37,"time_elapsed":47699,"internal_node_id":"0.0-10.0-0.1","mouse_tracking_data":[{"x":1095,"y":165,"t":4,"event":"mousemove"},{"x":1095,"y":164,"t":288,"event":"mousemove"},{"x":1095,"y":162,"t":396,"event":"mousemove"}],"mouse_tracking_targets":{},"correct":false},{"rt":881,"stimulus":"<p>How confident are you about your choice ?</p>","slider_start":50,"response":50,"trial_type":"html-slider-response","trial_index":38,"time_elapsed":48581,"internal_node_id":"0.0-10.0-1.1"},{"rt":null,"stimulus":"\n        <div id='jspsych-image' style='position: relative; width: min(80vw, 80vh); height: min(80vw, 80vh);'>\n                \n                <div style='position: absolute; top: 40%; left: 30%; bottom: 40%; right: 30%;'><h1 style='font-size: 60px; color: red'>Wrong</h1></div>\n                \n                <div class='jspsych-image' id='jspsych-image-0' data-choice='0' style='top: 0;     left: 0;'><img style=\"max-width: 100%; max-height: 100%;\" src='../static/human_exp_images/task_shape_color_3/01_3.png' class='correct-choice'></img></div>\n                <div class='jspsych-image' id='jspsych-image-1' data-choice='1' style='top: 0;     right: 0;'><img style=\"max-width: 100%; max-height: 100%;\" src='../static/human_exp_images/task_shape_color_3/01_1.png' class='wrong-choice'></img></div>\n                <div class='jspsych-image' id='jspsych-image-2' data-choice='2' style='bottom: 0;  left: 0;'><img style=\"max-width: 100%; max-height: 100%;\" src='../static/human_exp_images/task_shape_color_3/01_0.png' class=''></img></div>\n                <div class='jspsych-image' id='jspsych-image-3' data-choice='3' style='bottom: 0;  right: 0;'><img style=\"max-width: 100%; max-height: 100%;\" src='../static/human_exp_images/task_shape_color_3/01_2.png' class=''></img></div>\n\n        </div>","response":null,"trial_type":"html-keyboard-response","trial_index":39,"time_elapsed":51084,"internal_node_id":"0.0-10.0-2.1"},{"rt":708,"response":2,"all_choices":["../static/human_exp_images/task_shape_color_3/02_0.png","../static/human_exp_images/task_shape_color_3/02_2.png","../static/human_exp_images/task_shape_color_3/02_3.png","../static/human_exp_images/task_shape_color_3/02_1.png"],"task":"response","correct_response":2,"shuffled_array":[0,2,3,1],"trial_type":"image-click","trial_index":40,"time_elapsed":51793,"internal_node_id":"0.0-10.0-0.2","mouse_tracking_data":[{"x":809,"y":525,"t":417,"event":"mousemove"},{"x":808,"y":527,"t":418,"event":"mousemove"},{"x":801,"y":531,"t":435,"event":"mousemove"},{"x":785,"y":540,"t":452,"event":"mousemove"},{"x":762,"y":548,"t":468,"event":"mousemove"},{"x":755,"y":552,"t":485,"event":"mousemove"},{"x":740,"y":556,"t":502,"event":"mousemove"},{"x":736,"y":556,"t":518,"event":"mousemove"},{"x":735,"y":556,"t":534,"event":"mousemove"},{"x":733,"y":556,"t":661,"event":"mousemove"}],"mouse_tracking_targets":{},"correct":true},{"rt":812,"stimulus":"<p>How confident are you about your choice ?</p>","slider_start":50,"response":50,"trial_type":"html-slider-response","trial_index":41,"time_elapsed":52605,"internal_node_id":"0.0-10.0-1.2"},{"rt":null,"stimulus":"\n        <div id='jspsych-image' style='position: relative; width: min(80vw, 80vh); height: min(80vw, 80vh);'>\n                \n                <div style='position: absolute; top: 40%; left: 30%; bottom: 40%; right: 30%;'><h1 style='font-size: 60px; color: green;'>Correct!</h1></div>\n                \n                <div class='jspsych-image' id='jspsych-image-0' data-choice='0' style='top: 0;     left: 0;'><img style=\"max-width: 100%; max-height: 100%;\" src='../static/human_exp_images/task_shape_color_3/02_0.png' class=''></img></div>\n                <div class='jspsych-image' id='jspsych-image-1' data-choice='1' style='top: 0;     right: 0;'><img style=\"max-width: 100%; max-height: 100%;\" src='../static/human_exp_images/task_shape_color_3/02_2.png' class=''></img></div>\n                <div class='jspsych-image' id='jspsych-image-2' data-choice='2' style='bottom: 0;  left: 0;'><img style=\"max-width: 100%; max-height: 100%;\" src='../static/human_exp_images/task_shape_color_3/02_3.png' class='correct-choice'></img></div>\n                <div class='jspsych-image' id='jspsych-image-3' data-choice='3' style='bottom: 0;  right: 0;'><img style=\"max-width: 100%; max-height: 100%;\" src='../static/human_exp_images/task_shape_color_3/02_1.png' class=''></img></div>\n\n        </div>","response":null,"trial_type":"html-keyboard-response","trial_index":42,"time_elapsed":54105,"internal_node_id":"0.0-10.0-2.2"},{"rt":899,"stimulus":"<h1 style='font-size: 60px'>New Rule!</h1> <p>Press any key to begin.</p>","response":" ","trial_type":"html-keyboard-response","trial_index":43,"time_elapsed":55006,"internal_node_id":"0.0-11.0"},{"rt":848,"response":3,"all_choices":["../static/human_exp_images/task_pos_size_1/00_2.png","../static/human_exp_images/task_pos_size_1/00_1.png","../static/human_exp_images/task_pos_size_1/00_3.png","../static/human_exp_images/task_pos_size_1/00_0.png"],"task":"response","correct_response":2,"shuffled_array":[2,1,3,0],"trial_type":"image-click","trial_index":44,"time_elapsed":55856,"internal_node_id":"0.0-12.0-0.0","mouse_tracking_data":[{"x":895,"y":538,"t":432,"event":"mousemove"},{"x":900,"y":538,"t":495,"event":"mousemove"},{"x":906,"y":538,"t":496,"event":"mousemove"},{"x":919,"y":538,"t":512,"event":"mousemove"},{"x":933,"y":538,"t":529,"event":"mousemove"},{"x":948,"y":538,"t":546,"event":"mousemove"},{"x":968,"y":538,"t":563,"event":"mousemove"},{"x":984,"y":538,"t":580,"event":"mousemove"},{"x":991,"y":538,"t":596,"event":"mousemove"},{"x":1006,"y":538,"t":613,"event":"mousemove"},{"x":1018,"y":538,"t":630,"event":"mousemove"},{"x":1029,"y":542,"t":645,"event":"mousemove"},{"x":1035,"y":544,"t":663,"event":"mousemove"},{"x":1040,"y":546,"t":679,"event":"mousemove"},{"x":1047,"y":548,"t":696,"event":"mousemove"},{"x":1051,"y":549,"t":712,"event":"mousemove"},{"x":1055,"y":549,"t":730,"event":"mousemove"},{"x":1056,"y":551,"t":745,"event":"mousemove"},{"x":1058,"y":551,"t":762,"event":"mousemove"}],"mouse_tracking_targets":{},"correct":false},{"rt":807,"stimulus":"<p>How confident are you about your choice ?</p>","slider_start":50,"response":50,"trial_type":"html-slider-response","trial_index":45,"time_elapsed":56664,"internal_node_id":"0.0-12.0-1.0"},{"rt":null,"stimulus":"\n        <div id='jspsych-image' style='position: relative; width: min(80vw, 80vh); height: min(80vw, 80vh);'>\n                \n                <div style='position: absolute; top: 40%; left: 30%; bottom: 40%; right: 30%;'><h1 style='font-size: 60px; color: red'>Wrong</h1></div>\n                \n                <div class='jspsych-image' id='jspsych-image-0' data-choice='0' style='top: 0;     left: 0;'><img style=\"max-width: 100%; max-height: 100%;\" src='../static/human_exp_images/task_pos_size_1/00_2.png' class=''></img></div>\n                <div class='jspsych-image' id='jspsych-image-1' data-choice='1' style='top: 0;     right: 0;'><img style=\"max-width: 100%; max-height: 100%;\" src='../static/human_exp_images/task_pos_size_1/00_1.png' class=''></img></div>\n                <div class='jspsych-image' id='jspsych-image-2' data-choice='2' style='bottom: 0;  left: 0;'><img style=\"max-width: 100%; max-height: 100%;\" src='../static/human_exp_images/task_pos_size_1/00_3.png' class='correct-choice'></img></div>\n                <div class='jspsych-image' id='jspsych-image-3' data-choice='3' style='bottom: 0;  right: 0;'><img style=\"max-width: 100%; max-height: 100%;\" src='../static/human_exp_images/task_pos_size_1/00_0.png' class='wrong-choice'></img></div>\n\n        </div>","response":null,"trial_type":"html-keyboard-response","trial_index":46,"time_elapsed":59168,"internal_node_id":"0.0-12.0-2.0"},{"rt":935,"response":2,"all_choices":["../static/human_exp_images/task_pos_size_1/01_2.png","../static/human_exp_images/task_pos_size_1/01_1.png","../static/human_exp_images/task_pos_size_1/01_3.png","../static/human_exp_images/task_pos_size_1/01_0.png"],"task":"response","correct_response":2,"shuffled_array":[2,1,3,0],"trial_type":"image-click","trial_index":47,"time_elapsed":60104,"internal_node_id":"0.0-12.0-0.1","mouse_tracking_data":[{"x":853,"y":559,"t":516,"event":"mousemove"},{"x":853,"y":559,"t":524,"event":"mousemove"},{"x":851,"y":559,"t":545,"event":"mousemove"},{"x":849,"y":559,"t":551,"event":"mousemove"},{"x":849,"y":561,"t":554,"event":"mousemove"},{"x":847,"y":561,"t":560,"event":"mousemove"},{"x":847,"y":562,"t":564,"event":"mousemove"},{"x":844,"y":564,"t":568,"event":"mousemove"},{"x":842,"y":567,"t":579,"event":"mousemove"},{"x":838,"y":567,"t":580,"event":"mousemove"},{"x":827,"y":570,"t":596,"event":"mousemove"},{"x":816,"y":572,"t":613,"event":"mousemove"},{"x":800,"y":572,"t":629,"event":"mousemove"},{"x":787,"y":572,"t":646,"event":"mousemove"},{"x":774,"y":572,"t":663,"event":"mousemove"},{"x":763,"y":572,"t":680,"event":"mousemove"},{"x":748,"y":572,"t":696,"event":"mousemove"},{"x":740,"y":572,"t":713,"event":"mousemove"},{"x":729,"y":572,"t":730,"event":"mousemove"},{"x":721,"y":572,"t":747,"event":"mousemove"},{"x":715,"y":572,"t":762,"event":"mousemove"},{"x":709,"y":572,"t":780,"event":"mousemove"},{"x":706,"y":572,"t":796,"event":"mousemove"},{"x":701,"y":572,"t":813,"event":"mousemove"},{"x":698,"y":572,"t":831,"event":"mousemove"},{"x":696,"y":572,"t":847,"event":"mousemove"}],"mouse_tracking_targets":{},"correct":true},{"rt":870,"stimulus":"<p>How confident are you about your choice ?</p>","slider_start":50,"response":50,"trial_type":"html-slider-response","trial_index":48,"time_elapsed":60975,"internal_node_id":"0.0-12.0-1.1"},{"rt":null,"stimulus":"\n        <div id='jspsych-image' style='position: relative; width: min(80vw, 80vh); height: min(80vw, 80vh);'>\n                \n                <div style='position: absolute; top: 40%; left: 30%; bottom: 40%; right: 30%;'><h1 style='font-size: 60px; color: green;'>Correct!</h1></div>\n                \n                <div class='jspsych-image' id='jspsych-image-0' data-choice='0' style='top: 0;     left: 0;'><img style=\"max-width: 100%; max-height: 100%;\" src='../static/human_exp_images/task_pos_size_1/01_2.png' class=''></img></div>\n                <div class='jspsych-image' id='jspsych-image-1' data-choice='1' style='top: 0;     right: 0;'><img style=\"max-width: 100%; max-height: 100%;\" src='../static/human_exp_images/task_pos_size_1/01_1.png' class=''></img></div>\n                <div class='jspsych-image' id='jspsych-image-2' data-choice='2' style='bottom: 0;  left: 0;'><img style=\"max-width: 100%; max-height: 100%;\" src='../static/human_exp_images/task_pos_size_1/01_3.png' class='correct-choice'></img></div>\n                <div class='jspsych-image' id='jspsych-image-3' data-choice='3' style='bottom: 0;  right: 0;'><img style=\"max-width: 100%; max-height: 100%;\" src='../static/human_exp_images/task_pos_size_1/01_0.png' class=''></img></div>\n\n        </div>","response":null,"trial_type":"html-keyboard-response","trial_index":49,"time_elapsed":62477,"internal_node_id":"0.0-12.0-2.1"},{"rt":762,"response":1,"all_choices":["../static/human_exp_images/task_pos_size_1/02_0.png","../static/human_exp_images/task_pos_size_1/02_2.png","../static/human_exp_images/task_pos_size_1/02_1.png","../static/human_exp_images/task_pos_size_1/02_3.png"],"task":"response","correct_response":3,"shuffled_array":[0,2,1,3],"trial_type":"image-click","trial_index":50,"time_elapsed":63241,"internal_node_id":"0.0-12.0-0.2","mouse_tracking_data":[{"x":1012,"y":303,"t":55,"event":"mousemove"},{"x":1014,"y":299,"t":66,"event":"mousemove"},{"x":1018,"y":291,"t":81,"event":"mousemove"},{"x":1022,"y":285,"t":99,"event":"mousemove"},{"x":1025,"y":280,"t":115,"event":"mousemove"},{"x":1029,"y":275,"t":132,"event":"mousemove"},{"x":1029,"y":274,"t":148,"event":"mousemove"},{"x":1029,"y":272,"t":271,"event":"mousemove"},{"x":1029,"y":270,"t":451,"event":"mousemove"},{"x":1029,"y":270,"t":460,"event":"mousemove"},{"x":1029,"y":266,"t":469,"event":"mousemove"},{"x":1031,"y":264,"t":473,"event":"mousemove"},{"x":1031,"y":259,"t":477,"event":"mousemove"},{"x":1033,"y":259,"t":479,"event":"mousemove"},{"x":1036,"y":252,"t":494,"event":"mousemove"},{"x":1044,"y":239,"t":511,"event":"mousemove"},{"x":1049,"y":228,"t":528,"event":"mousemove"},{"x":1051,"y":222,"t":545,"event":"mousemove"},{"x":1051,"y":220,"t":561,"event":"mousemove"},{"x":1051,"y":220,"t":578,"event":"mousemove"},{"x":1051,"y":219,"t":624,"event":"mousemove"}],"mouse_tracking_targets":{},"correct":false},{"rt":888,"stimulus":"<p>How confident are you about your choice ?</p>","slider_start":50,"response":50,"trial_type":"html-slider-response","trial_index":51,"time_elapsed":64132,"internal_node_id":"0.0-12.0-1.2"},{"rt":null,"stimulus":"\n        <div id='jspsych-image' style='position: relative; width: min(80vw, 80vh); height: min(80vw, 80vh);'>\n                \n                <div style='position: absolute; top: 40%; left: 30%; bottom: 40%; right: 30%;'><h1 style='font-size: 60px; color: red'>Wrong</h1></div>\n                \n                <div class='jspsych-image' id='jspsych-image-0' data-choice='0' style='top: 0;     left: 0;'><img style=\"max-width: 100%; max-height: 100%;\" src='../static/human_exp_images/task_pos_size_1/02_0.png' class=''></img></div>\n                <div class='jspsych-image' id='jspsych-image-1' data-choice='1' style='top: 0;     right: 0;'><img style=\"max-width: 100%; max-height: 100%;\" src='../static/human_exp_images/task_pos_size_1/02_2.png' class='wrong-choice'></img></div>\n                <div class='jspsych-image' id='jspsych-image-2' data-choice='2' style='bottom: 0;  left: 0;'><img style=\"max-width: 100%; max-height: 100%;\" src='../static/human_exp_images/task_pos_size_1/02_1.png' class=''></img></div>\n                <div class='jspsych-image' id='jspsych-image-3' data-choice='3' style='bottom: 0;  right: 0;'><img style=\"max-width: 100%; max-height: 100%;\" src='../static/human_exp_images/task_pos_size_1/02_3.png' class='correct-choice'></img></div>\n\n        </div>","response":null,"trial_type":"html-keyboard-response","trial_index":52,"time_elapsed":66635,"internal_node_id":"0.0-12.0-2.2"},{"rt":809,"stimulus":"<h1 style='font-size: 60px'>New Rule!</h1> <p>Press any key to begin.</p>","response":" ","trial_type":"html-keyboard-response","trial_index":53,"time_elapsed":67445,"internal_node_id":"0.0-13.0"},{"rt":772,"response":3,"all_choices":["../static/human_exp_images/task_color_contact/00_2.png","../static/human_exp_images/task_color_contact/00_0.png","../static/human_exp_images/task_color_contact/00_3.png","../static/human_exp_images/task_color_contact/00_1.png"],"task":"response","correct_response":2,"shuffled_array":[2,0,3,1],"trial_type":"image-click","trial_index":54,"time_elapsed":68220,"internal_node_id":"0.0-14.0-0.0","mouse_tracking_data":[{"x":952,"y":456,"t":502,"event":"mousemove"},{"x":955,"y":456,"t":504,"event":"mousemove"},{"x":961,"y":456,"t":510,"event":"mousemove"},{"x":963,"y":456,"t":515,"event":"mousemove"},{"x":967,"y":456,"t":519,"event":"mousemove"},{"x":971,"y":456,"t":521,"event":"mousemove"},{"x":983,"y":456,"t":537,"event":"mousemove"},{"x":1004,"y":462,"t":553,"event":"mousemove"},{"x":1025,"y":474,"t":570,"event":"mousemove"},{"x":1048,"y":495,"t":587,"event":"mousemove"},{"x":1063,"y":514,"t":603,"event":"mousemove"},{"x":1076,"y":532,"t":620,"event":"mousemove"},{"x":1081,"y":546,"t":637,"event":"mousemove"},{"x":1085,"y":551,"t":653,"event":"mousemove"},{"x":1086,"y":556,"t":670,"event":"mousemove"},{"x":1088,"y":556,"t":686,"event":"mousemove"}],"mouse_tracking_targets":{},"correct":false},{"rt":1295,"stimulus":"<p>How confident are you about your choice ?</p>","slider_start":50,"response":50,"trial_type":"html-slider-response","trial_index":55,"time_elapsed":69519,"internal_node_id":"0.0-14.0-1.0"},{"rt":null,"stimulus":"\n        <div id='jspsych-image' style='position: relative; width: min(80vw, 80vh); height: min(80vw, 80vh);'>\n                \n                <div style='position: absolute; top: 40%; left: 30%; bottom: 40%; right: 30%;'><h1 style='font-size: 60px; color: red'>Wrong</h1></div>\n                \n                <div class='jspsych-image' id='jspsych-image-0' data-choice='0' style='top: 0;     left: 0;'><img style=\"max-width: 100%; max-height: 100%;\" src='../static/human_exp_images/task_color_contact/00_2.png' class=''></img></div>\n                <div class='jspsych-image' id='jspsych-image-1' data-choice='1' style='top: 0;     right: 0;'><img style=\"max-width: 100%; max-height: 100%;\" src='../static/human_exp_images/task_color_contact/00_0.png' class=''></img></div>\n                <div class='jspsych-image' id='jspsych-image-2' data-choice='2' style='bottom: 0;  left: 0;'><img style=\"max-width: 100%; max-height: 100%;\" src='../static/human_exp_images/task_color_contact/00_3.png' class='correct-choice'></img></div>\n                <div class='jspsych-image' id='jspsych-image-3' data-choice='3' style='bottom: 0;  right: 0;'><img style=\"max-width: 100%; max-height: 100%;\" src='../static/human_exp_images/task_color_contact/00_1.png' class='wrong-choice'></img></div>\n\n        </div>","response":null,"trial_type":"html-keyboard-response","trial_index":56,"time_elapsed":72023,"internal_node_id":"0.0-14.0-2.0"},{"rt":486,"response":1,"all_choices":["../static/human_exp_images/task_color_contact/01_1.png","../static/human_exp_images/task_color_contact/01_2.png","../static/human_exp_images/task_color_contact/01_3.png","../static/human_exp_images/task_color_contact/01_0.png"],"task":"response","correct_response":2,"shuffled_array":[1,2,3,0],"trial_type":"image-click","trial_index":57,"time_elapsed":72513,"internal_node_id":"0.0-14.0-0.1","mouse_tracking_data":[],"mouse_tracking_targets":{},"correct":false},{"rt":1172,"stimulus":"<p>How confident are you about your choice ?</p>","slider_start":50,"response":50,"trial_type":"html-slider-response","trial_index":58,"time_elapsed":73689,"internal_node_id":"0.0-14.0-1.1"},{"rt":null,"stimulus":"\n        <div id='jspsych-image' style='position: relative; width: min(80vw, 80vh); height: min(80vw, 80vh);'>\n                \n                <div style='position: absolute; top: 40%; left: 30%; bottom: 40%; right: 30%;'><h1 style='font-size: 60px; color: red'>Wrong</h1></div>\n                \n                <div class='jspsych-image' id='jspsych-image-0' data-choice='0' style='top: 0;     left: 0;'><img style=\"max-width: 100%; max-height: 100%;\" src='../static/human_exp_images/task_color_contact/01_1.png' class=''></img></div>\n                <div class='jspsych-image' id='jspsych-image-1' data-choice='1' style='top: 0;     right: 0;'><img style=\"max-width: 100%; max-height: 100%;\" src='../static/human_exp_images/task_color_contact/01_2.png' class='wrong-choice'></img></div>\n                <div class='jspsych-image' id='jspsych-image-2' data-choice='2' style='bottom: 0;  left: 0;'><img style=\"max-width: 100%; max-height: 100%;\" src='../static/human_exp_images/task_color_contact/01_3.png' class='correct-choice'></img></div>\n                <div class='jspsych-image' id='jspsych-image-3' data-choice='3' style='bottom: 0;  right: 0;'><img style=\"max-width: 100%; max-height: 100%;\" src='../static/human_exp_images/task_color_contact/01_0.png' class=''></img></div>\n\n        </div>","response":null,"trial_type":"html-keyboard-response","trial_index":59,"time_elapsed":76195,"internal_node_id":"0.0-14.0-2.1"},{"rt":452,"response":0,"all_choices":["../static/human_exp_images/task_color_contact/02_1.png","../static/human_exp_images/task_color_contact/02_0.png","../static/human_exp_images/task_color_contact/02_3.png","../static/human_exp_images/task_color_contact/02_2.png"],"task":"response","correct_response":2,"shuffled_array":[1,0,3,2],"trial_type":"image-click","trial_index":60,"time_elapsed":76648,"internal_node_id":"0.0-14.0-0.2","mouse_tracking_data":[{"x":703,"y":189,"t":8,"event":"mousemove"},{"x":703,"y":187,"t":26,"event":"mousemove"},{"x":702,"y":186,"t":48,"event":"mousemove"},{"x":700,"y":186,"t":223,"event":"mousemove"}],"mouse_tracking_targets":{},"correct":false},{"rt":1153,"stimulus":"<p>How confident are you about your choice ?</p>","slider_start":50,"response":50,"trial_type":"html-slider-response","trial_index":61,"time_elapsed":77801,"internal_node_id":"0.0-14.0-1.2"},{"rt":null,"stimulus":"\n        <div id='jspsych-image' style='position: relative; width: min(80vw, 80vh); height: min(80vw, 80vh);'>\n                \n                <div style='position: absolute; top: 40%; left: 30%; bottom: 40%; right: 30%;'><h1 style='font-size: 60px; color: red'>Wrong</h1></div>\n                \n                <div class='jspsych-image' id='jspsych-image-0' data-choice='0' style='top: 0;     left: 0;'><img style=\"max-width: 100%; max-height: 100%;\" src='../static/human_exp_images/task_color_contact/02_1.png' class='wrong-choice'></img></div>\n                <div class='jspsych-image' id='jspsych-image-1' data-choice='1' style='top: 0;     right: 0;'><img style=\"max-width: 100%; max-height: 100%;\" src='../static/human_exp_images/task_color_contact/02_0.png' class=''></img></div>\n                <div class='jspsych-image' id='jspsych-image-2' data-choice='2' style='bottom: 0;  left: 0;'><img style=\"max-width: 100%; max-height: 100%;\" src='../static/human_exp_images/task_color_contact/02_3.png' class='correct-choice'></img></div>\n                <div class='jspsych-image' id='jspsych-image-3' data-choice='3' style='bottom: 0;  right: 0;'><img style=\"max-width: 100%; max-height: 100%;\" src='../static/human_exp_images/task_color_contact/02_2.png' class=''></img></div>\n\n        </div>","response":null,"trial_type":"html-keyboard-response","trial_index":62,"time_elapsed":80306,"internal_node_id":"0.0-14.0-2.2"},{"rt":4422,"stimulus":"<p>You responded correctly on 28% of the trials.</p>\n    <p>Your average response time was 883ms.</p>\n    <p>Press any key to complete the experiment. Thank you!</p>","response":" ","trial_type":"html-keyboard-response","trial_index":63,"time_elapsed":84730,"internal_node_id":"0.0-15.0","interactions":"[]"}]