[{"rt":341,"stimulus":"<p style='font-size: 40px'>Welcome to the experiment.</p><p style='font-size: 30px'>Press any key to begin.</p>","response":" ","trial_type":"html-keyboard-response","trial_index":0,"time_elapsed":345,"internal_node_id":"0.0-0.0"},{"rt":446,"stimulus":"\n    <p>This experiment aims to measure humans' visual reasoning skills. You will go through a practice session consisting of 3 trials, followed by 6 blocks of 21 trials.</p>\n    <p>When presented with an empty square in the middle of the screen, place your cursor on it to start the trial.</p>\n    <p>4 images will appear on the screen. 3 out of 4 images were generated with a certain rule while one image (the odd one out) does not respect this rule.</p>\n    <p>Select the odd one out by clicking on the image.</p>\n    <p>Following your choice, you will be asked to rate how confident you were about your choice on a scale from 0 to 100. Then, you will receive feedback on the trial.</p>\n    <p>The 21 trials of a block use the same rule and each block uses a different rule. At the end of each block, you will asked to describe the rule before starting a new block.</p>\n    <p>Please do not take breaks only in between blocks not in between trials.</p>\n    <p>The following 3 trials will allow you to get familiar with the odd-one-out task. The experiment starts after this practice session.</p>\n    \n    <p>Press any button to continue</p>\n    <div style='margin: auto; position: relative; width: 400px; height: 400px;'>\n        <div style='position: absolute; top: 0;     left: 0; '><img src='../static/img/square.png'></img></div>\n        <div style='position: absolute; top: 0;     right: 0;'><img src='../static/img/square.png'></img></div>\n        <div style='position: absolute; bottom: 0;  left: 0; '><img src='../static/img/square.png'></img></div>\n        <div style='position: absolute; bottom: 0;  right: 0;'><img src='../static/img/square.png'></img></div>\n    </div>\n","response":" ","trial_type":"html-keyboard-response","trial_index":1,"time_elapsed":795,"internal_node_id":"0.0-1.0"},{"rt":2528,"response":{"Instruction Check":["The tasks consists of choosing one image that's different from the other three."]},"question_order":[0],"trial_type":"survey-multi-select","trial_index":2,"time_elapsed":5331,"internal_node_id":"0.0-2.0"},{"success":true,"timeout":false,"failed_images":[],"failed_audio":[],"failed_video":[],"trial_type":"preload","trial_index":3,"time_elapsed":5409,"internal_node_id":"0.0-3.0"},{"rt":null,"trial_type":"image-click","trial_index":4,"time_elapsed":5713,"internal_node_id":"0.0-4.0-0.0"},{"rt":901,"response":2,"all_choices":["../static/human_exp_images/practice_img/00_2.png","../static/human_exp_images/practice_img/00_1.png","../static/human_exp_images/practice_img/00_3.png","../static/human_exp_images/practice_img/00_0.png"],"task":"response","correct_response":2,"shuffled_array":[2,1,3,0],"catch_trial":false,"trial_type":"image-click","trial_index":5,"time_elapsed":6619,"internal_node_id":"0.0-4.0-1.0","mouse_tracking_data":[{"x":980,"y":546,"t":1,"event":"mousemove"},{"x":982,"y":534,"t":12,"event":"mousemove"},{"x":983,"y":531,"t":29,"event":"mousemove"},{"x":985,"y":529,"t":45,"event":"mousemove"},{"x":985,"y":527,"t":63,"event":"mousemove"},{"x":985,"y":526,"t":120,"event":"mousemove"},{"x":979,"y":526,"t":662,"event":"mousemove"},{"x":978,"y":526,"t":666,"event":"mousemove"},{"x":969,"y":526,"t":671,"event":"mousemove"},{"x":963,"y":526,"t":676,"event":"mousemove"},{"x":950,"y":526,"t":680,"event":"mousemove"},{"x":939,"y":526,"t":681,"event":"mousemove"},{"x":912,"y":536,"t":697,"event":"mousemove"},{"x":885,"y":551,"t":714,"event":"mousemove"},{"x":852,"y":567,"t":730,"event":"mousemove"},{"x":828,"y":581,"t":747,"event":"mousemove"},{"x":814,"y":592,"t":763,"event":"mousemove"},{"x":807,"y":597,"t":781,"event":"mousemove"},{"x":796,"y":604,"t":797,"event":"mousemove"},{"x":791,"y":607,"t":813,"event":"mousemove"}],"mouse_tracking_targets":{},"correct":true},{"rt":965,"stimulus":"<p>How confident are you about your choice ? (click on the bar)</p>","slider_start":50,"response":87,"trial_type":"html-slider-response","trial_index":6,"time_elapsed":7586,"internal_node_id":"0.0-4.0-2.0"},{"rt":null,"stimulus":"\n        <div id='jspsych-image' style='position: relative; width: min(80vw, 80vh); height: min(80vw, 80vh);'>\n                \n                <div style='position: absolute; top: 40%; left: 30%; bottom: 40%; right: 30%;'><h1 style='font-size: 60px; color: green;'>Correct!</h1></div>\n                \n                <div class='jspsych-image' id='jspsych-image-0' data-choice='0' style='top: 0;     left: 0;'><img style=\"width: 100%; height: 100%;\" src='../static/human_exp_images/practice_img/00_2.png' class=''></img></div>\n                <div class='jspsych-image' id='jspsych-image-1' data-choice='1' style='top: 0;     right: 0;'><img style=\"width: 100%; height: 100%;\" src='../static/human_exp_images/practice_img/00_1.png' class=''></img></div>\n                <div class='jspsych-image' id='jspsych-image-2' data-choice='2' style='bottom: 0;  left: 0;'><img style=\"width: 100%; height: 100%;\" src='../static/human_exp_images/practice_img/00_3.png' class='correct-choice'></img></div>\n                <div class='jspsych-image' id='jspsych-image-3' data-choice='3' style='bottom: 0;  right: 0;'><img style=\"width: 100%; height: 100%;\" src='../static/human_exp_images/practice_img/00_0.png' class=''></img></div>\n\n        </div>","response":null,"trial_type":"html-keyboard-response","trial_index":7,"time_elapsed":9091,"internal_node_id":"0.0-4.0-3.0"},{"rt":null,"trial_type":"image-click","trial_index":8,"time_elapsed":9511,"internal_node_id":"0.0-4.0-0.1"},{"rt":866,"response":1,"all_choices":["../static/human_exp_images/practice_img/01_2.png","../static/human_exp_images/practice_img/01_3.png","../static/human_exp_images/practice_img/01_1.png","../static/human_exp_images/practice_img/01_0.png"],"task":"response","correct_response":1,"shuffled_array":[2,3,1,0],"catch_trial":false,"trial_type":"image-click","trial_index":9,"time_elapsed":10382,"internal_node_id":"0.0-4.0-1.1","mouse_tracking_data":[{"x":1043,"y":472,"t":1,"event":"mousemove"},{"x":1033,"y":474,"t":10,"event":"mousemove"},{"x":1019,"y":474,"t":27,"event":"mousemove"},{"x":1009,"y":474,"t":43,"event":"mousemove"},{"x":1004,"y":474,"t":60,"event":"mousemove"},{"x":1000,"y":474,"t":77,"event":"mousemove"},{"x":998,"y":474,"t":94,"event":"mousemove"},{"x":997,"y":474,"t":142,"event":"mousemove"},{"x":998,"y":474,"t":638,"event":"mousemove"},{"x":1005,"y":474,"t":639,"event":"mousemove"},{"x":1018,"y":461,"t":656,"event":"mousemove"},{"x":1067,"y":416,"t":673,"event":"mousemove"},{"x":1098,"y":394,"t":689,"event":"mousemove"},{"x":1154,"y":350,"t":706,"event":"mousemove"},{"x":1205,"y":314,"t":722,"event":"mousemove"},{"x":1231,"y":293,"t":740,"event":"mousemove"},{"x":1240,"y":284,"t":756,"event":"mousemove"},{"x":1245,"y":279,"t":773,"event":"mousemove"},{"x":1246,"y":277,"t":790,"event":"mousemove"}],"mouse_tracking_targets":{},"correct":true},{"rt":809,"stimulus":"<p>How confident are you about your choice ? (click on the bar)</p>","slider_start":50,"response":93,"trial_type":"html-slider-response","trial_index":10,"time_elapsed":11195,"internal_node_id":"0.0-4.0-2.1"},{"rt":null,"stimulus":"\n        <div id='jspsych-image' style='position: relative; width: min(80vw, 80vh); height: min(80vw, 80vh);'>\n                \n                <div style='position: absolute; top: 40%; left: 30%; bottom: 40%; right: 30%;'><h1 style='font-size: 60px; color: green;'>Correct!</h1></div>\n                \n                <div class='jspsych-image' id='jspsych-image-0' data-choice='0' style='top: 0;     left: 0;'><img style=\"width: 100%; height: 100%;\" src='../static/human_exp_images/practice_img/01_2.png' class=''></img></div>\n                <div class='jspsych-image' id='jspsych-image-1' data-choice='1' style='top: 0;     right: 0;'><img style=\"width: 100%; height: 100%;\" src='../static/human_exp_images/practice_img/01_3.png' class='correct-choice'></img></div>\n                <div class='jspsych-image' id='jspsych-image-2' data-choice='2' style='bottom: 0;  left: 0;'><img style=\"width: 100%; height: 100%;\" src='../static/human_exp_images/practice_img/01_1.png' class=''></img></div>\n                <div class='jspsych-image' id='jspsych-image-3' data-choice='3' style='bottom: 0;  right: 0;'><img style=\"width: 100%; height: 100%;\" src='../static/human_exp_images/practice_img/01_0.png' class=''></img></div>\n\n        </div>","response":null,"trial_type":"html-keyboard-response","trial_index":11,"time_elapsed":12699,"internal_node_id":"0.0-4.0-3.1"},{"rt":null,"trial_type":"image-click","trial_index":12,"time_elapsed":13169,"internal_node_id":"0.0-4.0-0.2"},{"rt":1020,"response":3,"all_choices":["../static/human_exp_images/practice_img/02_1.png","../static/human_exp_images/practice_img/02_2.png","../static/human_exp_images/practice_img/02_0.png","../static/human_exp_images/practice_img/02_3.png"],"task":"response","correct_response":3,"shuffled_array":[1,2,0,3],"catch_trial":false,"trial_type":"image-click","trial_index":13,"time_elapsed":14190,"internal_node_id":"0.0-4.0-1.2","mouse_tracking_data":[{"x":1050,"y":450,"t":0,"event":"mousemove"},{"x":1045,"y":450,"t":15,"event":"mousemove"},{"x":1040,"y":450,"t":33,"event":"mousemove"},{"x":1038,"y":450,"t":50,"event":"mousemove"},{"x":1036,"y":450,"t":66,"event":"mousemove"},{"x":1035,"y":450,"t":84,"event":"mousemove"},{"x":1033,"y":450,"t":99,"event":"mousemove"},{"x":1028,"y":450,"t":116,"event":"mousemove"},{"x":1021,"y":450,"t":133,"event":"mousemove"},{"x":1012,"y":450,"t":150,"event":"mousemove"},{"x":1004,"y":450,"t":166,"event":"mousemove"},{"x":997,"y":450,"t":182,"event":"mousemove"},{"x":995,"y":450,"t":200,"event":"mousemove"},{"x":994,"y":450,"t":216,"event":"mousemove"},{"x":992,"y":450,"t":234,"event":"mousemove"},{"x":992,"y":452,"t":329,"event":"mousemove"},{"x":992,"y":454,"t":339,"event":"mousemove"},{"x":995,"y":455,"t":344,"event":"mousemove"},{"x":997,"y":457,"t":349,"event":"mousemove"},{"x":999,"y":459,"t":353,"event":"mousemove"},{"x":1000,"y":461,"t":354,"event":"mousemove"},{"x":1004,"y":464,"t":371,"event":"mousemove"},{"x":1011,"y":469,"t":388,"event":"mousemove"},{"x":1016,"y":474,"t":404,"event":"mousemove"},{"x":1018,"y":478,"t":420,"event":"mousemove"},{"x":1019,"y":478,"t":437,"event":"mousemove"},{"x":1021,"y":478,"t":552,"event":"mousemove"},{"x":1023,"y":478,"t":569,"event":"mousemove"},{"x":1024,"y":478,"t":580,"event":"mousemove"},{"x":1024,"y":479,"t":589,"event":"mousemove"},{"x":1026,"y":479,"t":592,"event":"mousemove"},{"x":1028,"y":479,"t":599,"event":"mousemove"},{"x":1028,"y":481,"t":603,"event":"mousemove"},{"x":1029,"y":481,"t":607,"event":"mousemove"},{"x":1031,"y":483,"t":608,"event":"mousemove"},{"x":1035,"y":484,"t":625,"event":"mousemove"},{"x":1047,"y":493,"t":643,"event":"mousemove"},{"x":1060,"y":507,"t":658,"event":"mousemove"},{"x":1076,"y":523,"t":675,"event":"mousemove"},{"x":1083,"y":533,"t":692,"event":"mousemove"},{"x":1092,"y":541,"t":709,"event":"mousemove"},{"x":1095,"y":547,"t":725,"event":"mousemove"},{"x":1102,"y":552,"t":742,"event":"mousemove"},{"x":1107,"y":557,"t":758,"event":"mousemove"},{"x":1110,"y":558,"t":775,"event":"mousemove"},{"x":1112,"y":560,"t":793,"event":"mousemove"},{"x":1112,"y":562,"t":809,"event":"mousemove"},{"x":1114,"y":562,"t":825,"event":"mousemove"},{"x":1119,"y":567,"t":842,"event":"mousemove"},{"x":1124,"y":574,"t":859,"event":"mousemove"},{"x":1127,"y":581,"t":875,"event":"mousemove"},{"x":1131,"y":586,"t":892,"event":"mousemove"},{"x":1134,"y":589,"t":909,"event":"mousemove"},{"x":1138,"y":593,"t":926,"event":"mousemove"},{"x":1139,"y":594,"t":942,"event":"mousemove"},{"x":1139,"y":596,"t":959,"event":"mousemove"},{"x":1139,"y":598,"t":975,"event":"mousemove"}],"mouse_tracking_targets":{},"correct":true},{"rt":1108,"stimulus":"<p>How confident are you about your choice ? (click on the bar)</p>","slider_start":50,"response":93,"trial_type":"html-slider-response","trial_index":14,"time_elapsed":15298,"internal_node_id":"0.0-4.0-2.2"},{"rt":null,"stimulus":"\n        <div id='jspsych-image' style='position: relative; width: min(80vw, 80vh); height: min(80vw, 80vh);'>\n                \n                <div style='position: absolute; top: 40%; left: 30%; bottom: 40%; right: 30%;'><h1 style='font-size: 60px; color: green;'>Correct!</h1></div>\n                \n                <div class='jspsych-image' id='jspsych-image-0' data-choice='0' style='top: 0;     left: 0;'><img style=\"width: 100%; height: 100%;\" src='../static/human_exp_images/practice_img/02_1.png' class=''></img></div>\n                <div class='jspsych-image' id='jspsych-image-1' data-choice='1' style='top: 0;     right: 0;'><img style=\"width: 100%; height: 100%;\" src='../static/human_exp_images/practice_img/02_2.png' class=''></img></div>\n                <div class='jspsych-image' id='jspsych-image-2' data-choice='2' style='bottom: 0;  left: 0;'><img style=\"width: 100%; height: 100%;\" src='../static/human_exp_images/practice_img/02_0.png' class=''></img></div>\n                <div class='jspsych-image' id='jspsych-image-3' data-choice='3' style='bottom: 0;  right: 0;'><img style=\"width: 100%; height: 100%;\" src='../static/human_exp_images/practice_img/02_3.png' class='correct-choice'></img></div>\n\n        </div>","response":null,"trial_type":"html-keyboard-response","trial_index":15,"time_elapsed":16801,"internal_node_id":"0.0-4.0-3.2"},{"rt":984,"stimulus":"<p style='font-size: 40px'>The practice session is over. The experiment begin now!</p> \n                <p>Please take pauses on only at the \"new rule\" pages.</p> \n                <p>Press any key to begin.</p>","response":" ","trial_type":"html-keyboard-response","trial_index":16,"time_elapsed":17787,"internal_node_id":"0.0-5.0"},{"success":true,"timeout":false,"failed_images":[],"failed_audio":[],"failed_video":[],"trial_type":"preload","trial_index":17,"time_elapsed":17854,"internal_node_id":"0.0-6.0"},{"rt":1280,"stimulus":"<h1 style='font-size: 60px'>New Rule!</h1> <p>Press any key to begin.</p>","response":" ","trial_type":"html-keyboard-response","trial_index":18,"time_elapsed":19134,"internal_node_id":"0.0-7.0"},{"rt":null,"trial_type":"image-click","trial_index":19,"time_elapsed":19137,"internal_node_id":"0.0-8.0-0.0"},{"rt":2852,"response":0,"all_choices":["../static/human_exp_images/task_rot/00_3.png","../static/human_exp_images/task_rot/00_2.png","../static/human_exp_images/task_rot/00_1.png","../static/human_exp_images/task_rot/00_0.png"],"task":"response","correct_response":0,"shuffled_array":[3,2,1,0],"catch_trial":false,"trial_type":"image-click","trial_index":20,"time_elapsed":21991,"internal_node_id":"0.0-8.0-1.0","mouse_tracking_data":[{"x":1044,"y":479,"t":1974,"event":"mousemove"},{"x":1044,"y":477,"t":1983,"event":"mousemove"},{"x":1044,"y":474,"t":2120,"event":"mousemove"},{"x":1044,"y":472,"t":2122,"event":"mousemove"},{"x":1042,"y":469,"t":2128,"event":"mousemove"},{"x":1040,"y":467,"t":2133,"event":"mousemove"},{"x":1037,"y":463,"t":2137,"event":"mousemove"},{"x":1033,"y":462,"t":2143,"event":"mousemove"},{"x":1030,"y":458,"t":2147,"event":"mousemove"},{"x":1028,"y":457,"t":2148,"event":"mousemove"},{"x":1021,"y":451,"t":2164,"event":"mousemove"},{"x":1008,"y":438,"t":2181,"event":"mousemove"},{"x":990,"y":425,"t":2198,"event":"mousemove"},{"x":976,"y":416,"t":2215,"event":"mousemove"},{"x":966,"y":410,"t":2231,"event":"mousemove"},{"x":957,"y":404,"t":2247,"event":"mousemove"},{"x":952,"y":401,"t":2264,"event":"mousemove"},{"x":948,"y":401,"t":2281,"event":"mousemove"},{"x":948,"y":404,"t":2384,"event":"mousemove"},{"x":948,"y":406,"t":2385,"event":"mousemove"},{"x":950,"y":411,"t":2392,"event":"mousemove"},{"x":952,"y":413,"t":2395,"event":"mousemove"},{"x":957,"y":416,"t":2401,"event":"mousemove"},{"x":959,"y":420,"t":2405,"event":"mousemove"},{"x":964,"y":423,"t":2410,"event":"mousemove"},{"x":965,"y":425,"t":2411,"event":"mousemove"},{"x":971,"y":428,"t":2428,"event":"mousemove"},{"x":979,"y":435,"t":2444,"event":"mousemove"},{"x":981,"y":439,"t":2461,"event":"mousemove"},{"x":977,"y":439,"t":2540,"event":"mousemove"},{"x":974,"y":439,"t":2544,"event":"mousemove"},{"x":967,"y":439,"t":2548,"event":"mousemove"},{"x":960,"y":439,"t":2548,"event":"mousemove"},{"x":944,"y":432,"t":2565,"event":"mousemove"},{"x":912,"y":411,"t":2582,"event":"mousemove"},{"x":877,"y":386,"t":2598,"event":"mousemove"},{"x":842,"y":362,"t":2615,"event":"mousemove"},{"x":819,"y":341,"t":2632,"event":"mousemove"},{"x":794,"y":318,"t":2649,"event":"mousemove"},{"x":781,"y":307,"t":2666,"event":"mousemove"},{"x":762,"y":295,"t":2682,"event":"mousemove"},{"x":749,"y":284,"t":2698,"event":"mousemove"},{"x":740,"y":273,"t":2715,"event":"mousemove"},{"x":732,"y":266,"t":2732,"event":"mousemove"},{"x":727,"y":260,"t":2748,"event":"mousemove"},{"x":720,"y":254,"t":2766,"event":"mousemove"},{"x":716,"y":253,"t":2781,"event":"mousemove"}],"mouse_tracking_targets":{},"correct":true},{"rt":1390,"stimulus":"<p>How confident are you about your choice ? (click on the bar)</p>","slider_start":50,"response":94,"trial_type":"html-slider-response","trial_index":21,"time_elapsed":23382,"internal_node_id":"0.0-8.0-2.0"},{"rt":null,"stimulus":"\n        <div id='jspsych-image' style='position: relative; width: min(80vw, 80vh); height: min(80vw, 80vh);'>\n                \n                <div style='position: absolute; top: 40%; left: 30%; bottom: 40%; right: 30%;'><h1 style='font-size: 60px; color: green;'>Correct!</h1></div>\n                \n                <div class='jspsych-image' id='jspsych-image-0' data-choice='0' style='top: 0;     left: 0;'><img style=\"width: 100%; height: 100%;\" src='../static/human_exp_images/task_rot/00_3.png' class='correct-choice'></img></div>\n                <div class='jspsych-image' id='jspsych-image-1' data-choice='1' style='top: 0;     right: 0;'><img style=\"width: 100%; height: 100%;\" src='../static/human_exp_images/task_rot/00_2.png' class=''></img></div>\n                <div class='jspsych-image' id='jspsych-image-2' data-choice='2' style='bottom: 0;  left: 0;'><img style=\"width: 100%; height: 100%;\" src='../static/human_exp_images/task_rot/00_1.png' class=''></img></div>\n                <div class='jspsych-image' id='jspsych-image-3' data-choice='3' style='bottom: 0;  right: 0;'><img style=\"width: 100%; height: 100%;\" src='../static/human_exp_images/task_rot/00_0.png' class=''></img></div>\n\n        </div>","response":null,"trial_type":"html-keyboard-response","trial_index":22,"time_elapsed":24884,"internal_node_id":"0.0-8.0-3.0"},{"rt":null,"trial_type":"image-click","trial_index":23,"time_elapsed":25662,"internal_node_id":"0.0-8.0-0.1"},{"rt":1092,"response":1,"all_choices":["../static/human_exp_images/task_rot/01_0.png","../static/human_exp_images/task_rot/01_3.png","../static/human_exp_images/task_rot/01_1.png","../static/human_exp_images/task_rot/01_2.png"],"task":"response","correct_response":1,"shuffled_array":[0,3,1,2],"catch_trial":false,"trial_type":"image-click","trial_index":24,"time_elapsed":26756,"internal_node_id":"0.0-8.0-1.1","mouse_tracking_data":[{"x":1024,"y":443,"t":1,"event":"mousemove"},{"x":996,"y":427,"t":15,"event":"mousemove"},{"x":982,"y":423,"t":31,"event":"mousemove"},{"x":973,"y":418,"t":48,"event":"mousemove"},{"x":970,"y":418,"t":64,"event":"mousemove"},{"x":970,"y":416,"t":82,"event":"mousemove"},{"x":968,"y":416,"t":99,"event":"mousemove"},{"x":968,"y":415,"t":741,"event":"mousemove"},{"x":968,"y":413,"t":750,"event":"mousemove"},{"x":970,"y":413,"t":754,"event":"mousemove"},{"x":972,"y":411,"t":758,"event":"mousemove"},{"x":973,"y":410,"t":759,"event":"mousemove"},{"x":980,"y":406,"t":776,"event":"mousemove"},{"x":996,"y":396,"t":793,"event":"mousemove"},{"x":1017,"y":380,"t":809,"event":"mousemove"},{"x":1044,"y":361,"t":826,"event":"mousemove"},{"x":1065,"y":349,"t":842,"event":"mousemove"},{"x":1085,"y":333,"t":860,"event":"mousemove"},{"x":1099,"y":324,"t":876,"event":"mousemove"},{"x":1115,"y":314,"t":892,"event":"mousemove"},{"x":1127,"y":305,"t":908,"event":"mousemove"},{"x":1134,"y":300,"t":926,"event":"mousemove"},{"x":1139,"y":297,"t":943,"event":"mousemove"},{"x":1142,"y":297,"t":960,"event":"mousemove"},{"x":1142,"y":295,"t":994,"event":"mousemove"}],"mouse_tracking_targets":{},"correct":true},{"rt":1414,"stimulus":"<p>How confident are you about your choice ? (click on the bar)</p>","slider_start":50,"response":91,"trial_type":"html-slider-response","trial_index":25,"time_elapsed":28172,"internal_node_id":"0.0-8.0-2.1"},{"rt":null,"stimulus":"\n        <div id='jspsych-image' style='position: relative; width: min(80vw, 80vh); height: min(80vw, 80vh);'>\n                \n                <div style='position: absolute; top: 40%; left: 30%; bottom: 40%; right: 30%;'><h1 style='font-size: 60px; color: green;'>Correct!</h1></div>\n                \n                <div class='jspsych-image' id='jspsych-image-0' data-choice='0' style='top: 0;     left: 0;'><img style=\"width: 100%; height: 100%;\" src='../static/human_exp_images/task_rot/01_0.png' class=''></img></div>\n                <div class='jspsych-image' id='jspsych-image-1' data-choice='1' style='top: 0;     right: 0;'><img style=\"width: 100%; height: 100%;\" src='../static/human_exp_images/task_rot/01_3.png' class='correct-choice'></img></div>\n                <div class='jspsych-image' id='jspsych-image-2' data-choice='2' style='bottom: 0;  left: 0;'><img style=\"width: 100%; height: 100%;\" src='../static/human_exp_images/task_rot/01_1.png' class=''></img></div>\n                <div class='jspsych-image' id='jspsych-image-3' data-choice='3' style='bottom: 0;  right: 0;'><img style=\"width: 100%; height: 100%;\" src='../static/human_exp_images/task_rot/01_2.png' class=''></img></div>\n\n        </div>","response":null,"trial_type":"html-keyboard-response","trial_index":26,"time_elapsed":29679,"internal_node_id":"0.0-8.0-3.1"},{"rt":null,"trial_type":"image-click","trial_index":27,"time_elapsed":30132,"internal_node_id":"0.0-8.0-0.2"},{"rt":982,"response":2,"all_choices":["../static/human_exp_images/task_rot/02_1.png","../static/human_exp_images/task_rot/02_2.png","../static/human_exp_images/task_rot/02_0.png","../static/human_exp_images/task_rot/02_3.png"],"task":"response","correct_response":3,"shuffled_array":[1,2,0,3],"catch_trial":false,"trial_type":"image-click","trial_index":28,"time_elapsed":31117,"internal_node_id":"0.0-8.0-1.2","mouse_tracking_data":[{"x":1045,"y":491,"t":0,"event":"mousemove"},{"x":1040,"y":491,"t":15,"event":"mousemove"},{"x":1033,"y":491,"t":31,"event":"mousemove"},{"x":1026,"y":491,"t":48,"event":"mousemove"},{"x":1021,"y":491,"t":65,"event":"mousemove"},{"x":1019,"y":491,"t":82,"event":"mousemove"},{"x":1016,"y":491,"t":99,"event":"mousemove"},{"x":1014,"y":491,"t":115,"event":"mousemove"},{"x":1012,"y":491,"t":132,"event":"mousemove"},{"x":1011,"y":491,"t":148,"event":"mousemove"},{"x":1009,"y":491,"t":165,"event":"mousemove"},{"x":1009,"y":489,"t":390,"event":"mousemove"},{"x":1007,"y":489,"t":445,"event":"mousemove"},{"x":1006,"y":489,"t":490,"event":"mousemove"},{"x":1004,"y":489,"t":507,"event":"mousemove"},{"x":1001,"y":489,"t":517,"event":"mousemove"},{"x":999,"y":489,"t":520,"event":"mousemove"},{"x":997,"y":489,"t":525,"event":"mousemove"},{"x":995,"y":489,"t":529,"event":"mousemove"},{"x":994,"y":489,"t":534,"event":"mousemove"},{"x":992,"y":489,"t":540,"event":"mousemove"},{"x":990,"y":489,"t":544,"event":"mousemove"},{"x":989,"y":489,"t":553,"event":"mousemove"},{"x":987,"y":489,"t":561,"event":"mousemove"},{"x":985,"y":489,"t":571,"event":"mousemove"},{"x":983,"y":489,"t":581,"event":"mousemove"},{"x":982,"y":489,"t":590,"event":"mousemove"},{"x":980,"y":489,"t":592,"event":"mousemove"},{"x":971,"y":489,"t":608,"event":"mousemove"},{"x":965,"y":489,"t":625,"event":"mousemove"},{"x":953,"y":491,"t":642,"event":"mousemove"},{"x":941,"y":498,"t":659,"event":"mousemove"},{"x":931,"y":506,"t":674,"event":"mousemove"},{"x":919,"y":515,"t":691,"event":"mousemove"},{"x":908,"y":522,"t":709,"event":"mousemove"},{"x":900,"y":529,"t":725,"event":"mousemove"},{"x":886,"y":539,"t":742,"event":"mousemove"},{"x":876,"y":546,"t":757,"event":"mousemove"},{"x":865,"y":555,"t":775,"event":"mousemove"},{"x":855,"y":563,"t":791,"event":"mousemove"},{"x":843,"y":575,"t":809,"event":"mousemove"},{"x":834,"y":584,"t":825,"event":"mousemove"},{"x":822,"y":597,"t":842,"event":"mousemove"},{"x":812,"y":609,"t":857,"event":"mousemove"},{"x":803,"y":618,"t":875,"event":"mousemove"},{"x":798,"y":623,"t":892,"event":"mousemove"},{"x":797,"y":625,"t":908,"event":"mousemove"}],"mouse_tracking_targets":{},"correct":false},{"rt":1426,"stimulus":"<p>How confident are you about your choice ? (click on the bar)</p>","slider_start":50,"response":87,"trial_type":"html-slider-response","trial_index":29,"time_elapsed":32547,"internal_node_id":"0.0-8.0-2.2"},{"rt":null,"stimulus":"\n        <div id='jspsych-image' style='position: relative; width: min(80vw, 80vh); height: min(80vw, 80vh);'>\n                \n                <div style='position: absolute; top: 40%; left: 30%; bottom: 40%; right: 30%;'><h1 style='font-size: 60px; color: red'>Wrong</h1></div>\n                \n                <div class='jspsych-image' id='jspsych-image-0' data-choice='0' style='top: 0;     left: 0;'><img style=\"width: 100%; height: 100%;\" src='../static/human_exp_images/task_rot/02_1.png' class=''></img></div>\n                <div class='jspsych-image' id='jspsych-image-1' data-choice='1' style='top: 0;     right: 0;'><img style=\"width: 100%; height: 100%;\" src='../static/human_exp_images/task_rot/02_2.png' class=''></img></div>\n                <div class='jspsych-image' id='jspsych-image-2' data-choice='2' style='bottom: 0;  left: 0;'><img style=\"width: 100%; height: 100%;\" src='../static/human_exp_images/task_rot/02_0.png' class='wrong-choice'></img></div>\n                <div class='jspsych-image' id='jspsych-image-3' data-choice='3' style='bottom: 0;  right: 0;'><img style=\"width: 100%; height: 100%;\" src='../static/human_exp_images/task_rot/02_3.png' class='correct-choice'></img></div>\n\n        </div>","response":null,"trial_type":"html-keyboard-response","trial_index":30,"time_elapsed":35053,"internal_node_id":"0.0-8.0-3.2"},{"rt":4340,"response":{"Q0":"llll"},"trial_type":"survey-text","trial_index":31,"time_elapsed":39402,"internal_node_id":"0.0-9.0"},{"rt":null,"stimulus":"<h1 style='font-size: 60px'>Block End</h1>","response":null,"trial_type":"html-keyboard-response","trial_index":32,"time_elapsed":39910,"internal_node_id":"0.0-10.0"},{"success":true,"timeout":false,"failed_images":[],"failed_audio":[],"failed_video":[],"trial_type":"preload","trial_index":33,"time_elapsed":39965,"internal_node_id":"0.0-11.0"},{"rt":2501,"stimulus":"<h1 style='font-size: 60px'>New Rule!</h1> <p>Press any key to begin.</p>","response":" ","trial_type":"html-keyboard-response","trial_index":34,"time_elapsed":42468,"internal_node_id":"0.0-12.0"},{"rt":null,"trial_type":"image-click","trial_index":35,"time_elapsed":43321,"internal_node_id":"0.0-13.0-0.0"},{"rt":4325,"response":2,"all_choices":["../static/human_exp_images/task_flip/00_0.png","../static/human_exp_images/task_flip/00_3.png","../static/human_exp_images/task_flip/00_1.png","../static/human_exp_images/task_flip/00_2.png"],"task":"response","correct_response":1,"shuffled_array":[0,3,1,2],"catch_trial":false,"trial_type":"image-click","trial_index":36,"time_elapsed":47650,"internal_node_id":"0.0-13.0-1.0","mouse_tracking_data":[{"x":1050,"y":488,"t":2,"event":"mousemove"},{"x":1035,"y":488,"t":13,"event":"mousemove"},{"x":1030,"y":488,"t":30,"event":"mousemove"},{"x":1028,"y":488,"t":46,"event":"mousemove"},{"x":1026,"y":488,"t":181,"event":"mousemove"},{"x":1024,"y":488,"t":255,"event":"mousemove"},{"x":1024,"y":486,"t":291,"event":"mousemove"},{"x":1024,"y":485,"t":327,"event":"mousemove"},{"x":1024,"y":483,"t":374,"event":"mousemove"},{"x":1024,"y":481,"t":401,"event":"mousemove"},{"x":1024,"y":479,"t":419,"event":"mousemove"},{"x":1024,"y":478,"t":437,"event":"mousemove"},{"x":1024,"y":476,"t":455,"event":"mousemove"},{"x":1024,"y":474,"t":483,"event":"mousemove"},{"x":1024,"y":473,"t":500,"event":"mousemove"},{"x":1023,"y":473,"t":3581,"event":"mousemove"},{"x":1021,"y":473,"t":3590,"event":"mousemove"},{"x":1020,"y":473,"t":3604,"event":"mousemove"},{"x":1018,"y":473,"t":3606,"event":"mousemove"},{"x":1016,"y":473,"t":3622,"event":"mousemove"},{"x":1008,"y":473,"t":3639,"event":"mousemove"},{"x":995,"y":480,"t":3656,"event":"mousemove"},{"x":978,"y":493,"t":3672,"event":"mousemove"},{"x":964,"y":508,"t":3688,"event":"mousemove"},{"x":950,"y":519,"t":3706,"event":"mousemove"},{"x":931,"y":535,"t":3723,"event":"mousemove"},{"x":922,"y":545,"t":3738,"event":"mousemove"},{"x":902,"y":564,"t":3756,"event":"mousemove"},{"x":879,"y":585,"t":3772,"event":"mousemove"},{"x":854,"y":610,"t":3790,"event":"mousemove"},{"x":843,"y":619,"t":3805,"event":"mousemove"},{"x":816,"y":644,"t":3823,"event":"mousemove"},{"x":803,"y":653,"t":3839,"event":"mousemove"},{"x":792,"y":661,"t":3856,"event":"mousemove"},{"x":791,"y":661,"t":3993,"event":"mousemove"}],"mouse_tracking_targets":{},"correct":false},{"rt":1230,"stimulus":"<p>How confident are you about your choice ? (click on the bar)</p>","slider_start":50,"response":88,"trial_type":"html-slider-response","trial_index":37,"time_elapsed":48883,"internal_node_id":"0.0-13.0-2.0"},{"rt":null,"stimulus":"\n        <div id='jspsych-image' style='position: relative; width: min(80vw, 80vh); height: min(80vw, 80vh);'>\n                \n                <div style='position: absolute; top: 40%; left: 30%; bottom: 40%; right: 30%;'><h1 style='font-size: 60px; color: red'>Wrong</h1></div>\n                \n                <div class='jspsych-image' id='jspsych-image-0' data-choice='0' style='top: 0;     left: 0;'><img style=\"width: 100%; height: 100%;\" src='../static/human_exp_images/task_flip/00_0.png' class=''></img></div>\n                <div class='jspsych-image' id='jspsych-image-1' data-choice='1' style='top: 0;     right: 0;'><img style=\"width: 100%; height: 100%;\" src='../static/human_exp_images/task_flip/00_3.png' class='correct-choice'></img></div>\n                <div class='jspsych-image' id='jspsych-image-2' data-choice='2' style='bottom: 0;  left: 0;'><img style=\"width: 100%; height: 100%;\" src='../static/human_exp_images/task_flip/00_1.png' class='wrong-choice'></img></div>\n                <div class='jspsych-image' id='jspsych-image-3' data-choice='3' style='bottom: 0;  right: 0;'><img style=\"width: 100%; height: 100%;\" src='../static/human_exp_images/task_flip/00_2.png' class=''></img></div>\n\n        </div>","response":null,"trial_type":"html-keyboard-response","trial_index":38,"time_elapsed":51386,"internal_node_id":"0.0-13.0-3.0"}]