[{"rt":957,"stimulus":"<p style='font-size: 40px'>Welcome to the experiment.</p><p style='font-size: 30px'>Press any key to begin.</p>","response":" ","trial_type":"html-keyboard-response","trial_index":0,"time_elapsed":959,"internal_node_id":"0.0-0.0"},{"rt":762,"stimulus":"\n    <p>This experiment aims to measure humans' visual reasoning skills. You will go through a practice session consisting of 3 trials, followed by 6 blocks of 21 trials.</p>\n    <p>When presented with an empty square in the middle of the screen, place your cursor on it to start the trial.</p>\n    <p>4 images will appear on the screen. 3 out of 4 images were generated with a certain rule while one image (the odd one out) does not respect this rule.</p>\n    <p>Select the odd one out by clicking on the image.</p>\n    <p>Following your choice, you will be asked to rate how confident you were about your choice on a scale from 0 to 100. Then, you will receive feedback on the trial.</p>\n    <p>The 21 trials of a block use the same rule and each block uses a different rule. At the end of each block, you will asked to describe the rule before starting a new block.</p>\n    <p>Please do not take breaks only in between blocks not in between trials.</p>\n    <p>The following 3 trials will allow you to get familiar with the odd-one-out task. The experiment starts after this practice session.</p>\n    \n    <p>Press any button to continue</p>\n    <div style='margin: auto; position: relative; width: 400px; height: 400px;'>\n        <div style='position: absolute; top: 0;     left: 0; '><img src='../static/img/square.png'></img></div>\n        <div style='position: absolute; top: 0;     right: 0;'><img src='../static/img/square.png'></img></div>\n        <div style='position: absolute; bottom: 0;  left: 0; '><img src='../static/img/square.png'></img></div>\n        <div style='position: absolute; bottom: 0;  right: 0;'><img src='../static/img/square.png'></img></div>\n    </div>\n","response":" ","trial_type":"html-keyboard-response","trial_index":1,"time_elapsed":1725,"internal_node_id":"0.0-1.0"},{"rt":3115,"response":{"Instruction Check":["There are 6 blocks of 21 trials.","The tasks consists of choosing one image that's different from the other three."]},"question_order":[0],"trial_type":"survey-multi-select","trial_index":2,"time_elapsed":6847,"internal_node_id":"0.0-2.0"},{"success":true,"timeout":false,"failed_images":[],"failed_audio":[],"failed_video":[],"trial_type":"preload","trial_index":3,"time_elapsed":6907,"internal_node_id":"0.0-3.0"},{"rt":null,"trial_type":"image-click","trial_index":4,"time_elapsed":7869,"internal_node_id":"0.0-4.0-0.0"},{"rt":1279,"response":2,"all_choices":["../static/human_exp_images/practice_img/00_1.png","../static/human_exp_images/practice_img/00_0.png","../static/human_exp_images/practice_img/00_3.png","../static/human_exp_images/practice_img/00_2.png"],"task":"response","correct_response":2,"shuffled_array":[1,0,3,2],"catch_trial":false,"trial_type":"image-click","trial_index":5,"time_elapsed":9149,"internal_node_id":"0.0-4.0-1.0","mouse_tracking_data":[{"x":973,"y":523,"t":0,"event":"mousemove"},{"x":973,"y":496,"t":16,"event":"mousemove"},{"x":973,"y":483,"t":32,"event":"mousemove"},{"x":973,"y":481,"t":49,"event":"mousemove"},{"x":974,"y":481,"t":231,"event":"mousemove"},{"x":978,"y":481,"t":241,"event":"mousemove"},{"x":979,"y":481,"t":243,"event":"mousemove"},{"x":983,"y":481,"t":248,"event":"mousemove"},{"x":986,"y":481,"t":250,"event":"mousemove"},{"x":996,"y":481,"t":266,"event":"mousemove"},{"x":1005,"y":481,"t":283,"event":"mousemove"},{"x":1017,"y":481,"t":299,"event":"mousemove"},{"x":1026,"y":481,"t":316,"event":"mousemove"},{"x":1031,"y":481,"t":332,"event":"mousemove"},{"x":1036,"y":481,"t":349,"event":"mousemove"},{"x":1037,"y":481,"t":375,"event":"mousemove"},{"x":1034,"y":481,"t":705,"event":"mousemove"},{"x":1033,"y":481,"t":705,"event":"mousemove"},{"x":1026,"y":481,"t":721,"event":"mousemove"},{"x":1012,"y":481,"t":739,"event":"mousemove"},{"x":1002,"y":481,"t":754,"event":"mousemove"},{"x":993,"y":481,"t":772,"event":"mousemove"},{"x":990,"y":481,"t":788,"event":"mousemove"},{"x":987,"y":481,"t":805,"event":"mousemove"},{"x":985,"y":481,"t":823,"event":"mousemove"},{"x":983,"y":481,"t":896,"event":"mousemove"},{"x":982,"y":481,"t":909,"event":"mousemove"},{"x":980,"y":481,"t":915,"event":"mousemove"},{"x":976,"y":483,"t":924,"event":"mousemove"},{"x":975,"y":485,"t":925,"event":"mousemove"},{"x":963,"y":495,"t":941,"event":"mousemove"},{"x":947,"y":506,"t":958,"event":"mousemove"},{"x":909,"y":534,"t":974,"event":"mousemove"},{"x":867,"y":566,"t":992,"event":"mousemove"},{"x":827,"y":598,"t":1008,"event":"mousemove"},{"x":790,"y":626,"t":1024,"event":"mousemove"},{"x":765,"y":650,"t":1040,"event":"mousemove"},{"x":752,"y":661,"t":1058,"event":"mousemove"},{"x":732,"y":681,"t":1075,"event":"mousemove"},{"x":715,"y":695,"t":1092,"event":"mousemove"},{"x":704,"y":705,"t":1108,"event":"mousemove"},{"x":701,"y":708,"t":1124,"event":"mousemove"},{"x":699,"y":713,"t":1141,"event":"mousemove"},{"x":697,"y":713,"t":1169,"event":"mousemove"}],"mouse_tracking_targets":{},"correct":true},{"rt":1682,"stimulus":"<p>How confident are you about your choice ? (click on the bar)</p>","slider_start":50,"response":99,"trial_type":"html-slider-response","trial_index":6,"time_elapsed":10834,"internal_node_id":"0.0-4.0-2.0"},{"rt":null,"stimulus":"\n        <div id='jspsych-image' style='position: relative; width: min(80vw, 80vh); height: min(80vw, 80vh);'>\n                \n                <div style='position: absolute; top: 40%; left: 30%; bottom: 40%; right: 30%;'><h1 style='font-size: 60px; color: green;'>Correct!</h1></div>\n                \n                <div class='jspsych-image' id='jspsych-image-0' data-choice='0' style='top: 0;     left: 0;'><img style=\"width: 100%; height: 100%;\" src='../static/human_exp_images/practice_img/00_1.png' class=''></img></div>\n                <div class='jspsych-image' id='jspsych-image-1' data-choice='1' style='top: 0;     right: 0;'><img style=\"width: 100%; height: 100%;\" src='../static/human_exp_images/practice_img/00_0.png' class=''></img></div>\n                <div class='jspsych-image' id='jspsych-image-2' data-choice='2' style='bottom: 0;  left: 0;'><img style=\"width: 100%; height: 100%;\" src='../static/human_exp_images/practice_img/00_3.png' class='correct-choice'></img></div>\n                <div class='jspsych-image' id='jspsych-image-3' data-choice='3' style='bottom: 0;  right: 0;'><img style=\"width: 100%; height: 100%;\" src='../static/human_exp_images/practice_img/00_2.png' class=''></img></div>\n\n        </div>","response":null,"trial_type":"html-keyboard-response","trial_index":7,"time_elapsed":12339,"internal_node_id":"0.0-4.0-3.0"},{"rt":null,"trial_type":"image-click","trial_index":8,"time_elapsed":12850,"internal_node_id":"0.0-4.0-0.1"},{"rt":944,"response":1,"all_choices":["../static/human_exp_images/practice_img/01_0.png","../static/human_exp_images/practice_img/01_3.png","../static/human_exp_images/practice_img/01_2.png","../static/human_exp_images/practice_img/01_1.png"],"task":"response","correct_response":1,"shuffled_array":[0,3,2,1],"catch_trial":false,"trial_type":"image-click","trial_index":9,"time_elapsed":13797,"internal_node_id":"0.0-4.0-1.1","mouse_tracking_data":[{"x":1047,"y":489,"t":2,"event":"mousemove"},{"x":1031,"y":489,"t":13,"event":"mousemove"},{"x":1019,"y":489,"t":28,"event":"mousemove"},{"x":1004,"y":484,"t":46,"event":"mousemove"},{"x":992,"y":479,"t":62,"event":"mousemove"},{"x":987,"y":476,"t":80,"event":"mousemove"},{"x":984,"y":474,"t":97,"event":"mousemove"},{"x":984,"y":472,"t":115,"event":"mousemove"},{"x":984,"y":471,"t":234,"event":"mousemove"},{"x":984,"y":469,"t":344,"event":"mousemove"},{"x":984,"y":467,"t":363,"event":"mousemove"},{"x":984,"y":465,"t":399,"event":"mousemove"},{"x":985,"y":462,"t":591,"event":"mousemove"},{"x":987,"y":462,"t":594,"event":"mousemove"},{"x":990,"y":459,"t":600,"event":"mousemove"},{"x":994,"y":457,"t":604,"event":"mousemove"},{"x":997,"y":454,"t":608,"event":"mousemove"},{"x":999,"y":450,"t":609,"event":"mousemove"},{"x":1004,"y":445,"t":625,"event":"mousemove"},{"x":1013,"y":436,"t":642,"event":"mousemove"},{"x":1025,"y":421,"t":658,"event":"mousemove"},{"x":1063,"y":377,"t":692,"event":"mousemove"},{"x":1073,"y":369,"t":697,"event":"mousemove"},{"x":1075,"y":367,"t":699,"event":"mousemove"},{"x":1082,"y":360,"t":707,"event":"mousemove"},{"x":1086,"y":358,"t":709,"event":"mousemove"},{"x":1093,"y":351,"t":715,"event":"mousemove"},{"x":1095,"y":349,"t":719,"event":"mousemove"},{"x":1102,"y":345,"t":724,"event":"mousemove"},{"x":1104,"y":343,"t":730,"event":"mousemove"},{"x":1110,"y":339,"t":742,"event":"mousemove"},{"x":1119,"y":333,"t":759,"event":"mousemove"},{"x":1124,"y":328,"t":776,"event":"mousemove"},{"x":1127,"y":327,"t":793,"event":"mousemove"},{"x":1131,"y":327,"t":810,"event":"mousemove"},{"x":1131,"y":325,"t":826,"event":"mousemove"}],"mouse_tracking_targets":{},"correct":true},{"rt":980,"stimulus":"<p>How confident are you about your choice ? (click on the bar)</p>","slider_start":50,"response":100,"trial_type":"html-slider-response","trial_index":10,"time_elapsed":14779,"internal_node_id":"0.0-4.0-2.1"},{"rt":null,"stimulus":"\n        <div id='jspsych-image' style='position: relative; width: min(80vw, 80vh); height: min(80vw, 80vh);'>\n                \n                <div style='position: absolute; top: 40%; left: 30%; bottom: 40%; right: 30%;'><h1 style='font-size: 60px; color: green;'>Correct!</h1></div>\n                \n                <div class='jspsych-image' id='jspsych-image-0' data-choice='0' style='top: 0;     left: 0;'><img style=\"width: 100%; height: 100%;\" src='../static/human_exp_images/practice_img/01_0.png' class=''></img></div>\n                <div class='jspsych-image' id='jspsych-image-1' data-choice='1' style='top: 0;     right: 0;'><img style=\"width: 100%; height: 100%;\" src='../static/human_exp_images/practice_img/01_3.png' class='correct-choice'></img></div>\n                <div class='jspsych-image' id='jspsych-image-2' data-choice='2' style='bottom: 0;  left: 0;'><img style=\"width: 100%; height: 100%;\" src='../static/human_exp_images/practice_img/01_2.png' class=''></img></div>\n                <div class='jspsych-image' id='jspsych-image-3' data-choice='3' style='bottom: 0;  right: 0;'><img style=\"width: 100%; height: 100%;\" src='../static/human_exp_images/practice_img/01_1.png' class=''></img></div>\n\n        </div>","response":null,"trial_type":"html-keyboard-response","trial_index":11,"time_elapsed":16283,"internal_node_id":"0.0-4.0-3.1"},{"rt":null,"trial_type":"image-click","trial_index":12,"time_elapsed":16678,"internal_node_id":"0.0-4.0-0.2"},{"rt":971,"response":3,"all_choices":["../static/human_exp_images/practice_img/02_1.png","../static/human_exp_images/practice_img/02_0.png","../static/human_exp_images/practice_img/02_2.png","../static/human_exp_images/practice_img/02_3.png"],"task":"response","correct_response":3,"shuffled_array":[1,0,2,3],"catch_trial":false,"trial_type":"image-click","trial_index":13,"time_elapsed":17650,"internal_node_id":"0.0-4.0-1.2","mouse_tracking_data":[{"x":1046,"y":471,"t":1,"event":"mousemove"},{"x":1031,"y":464,"t":14,"event":"mousemove"},{"x":1024,"y":461,"t":31,"event":"mousemove"},{"x":1015,"y":455,"t":48,"event":"mousemove"},{"x":1008,"y":452,"t":63,"event":"mousemove"},{"x":1003,"y":450,"t":81,"event":"mousemove"},{"x":1000,"y":450,"t":97,"event":"mousemove"},{"x":998,"y":450,"t":115,"event":"mousemove"},{"x":1004,"y":466,"t":639,"event":"mousemove"},{"x":1017,"y":489,"t":641,"event":"mousemove"},{"x":1052,"y":538,"t":658,"event":"mousemove"},{"x":1087,"y":584,"t":675,"event":"mousemove"},{"x":1103,"y":600,"t":690,"event":"mousemove"},{"x":1108,"y":609,"t":708,"event":"mousemove"},{"x":1112,"y":612,"t":724,"event":"mousemove"},{"x":1115,"y":614,"t":741,"event":"mousemove"},{"x":1117,"y":618,"t":758,"event":"mousemove"},{"x":1117,"y":619,"t":776,"event":"mousemove"},{"x":1117,"y":621,"t":805,"event":"mousemove"},{"x":1117,"y":623,"t":833,"event":"mousemove"},{"x":1117,"y":624,"t":871,"event":"mousemove"}],"mouse_tracking_targets":{},"correct":true},{"rt":1248,"stimulus":"<p>How confident are you about your choice ? (click on the bar)</p>","slider_start":50,"response":100,"trial_type":"html-slider-response","trial_index":14,"time_elapsed":18900,"internal_node_id":"0.0-4.0-2.2"},{"rt":null,"stimulus":"\n        <div id='jspsych-image' style='position: relative; width: min(80vw, 80vh); height: min(80vw, 80vh);'>\n                \n                <div style='position: absolute; top: 40%; left: 30%; bottom: 40%; right: 30%;'><h1 style='font-size: 60px; color: green;'>Correct!</h1></div>\n                \n                <div class='jspsych-image' id='jspsych-image-0' data-choice='0' style='top: 0;     left: 0;'><img style=\"width: 100%; height: 100%;\" src='../static/human_exp_images/practice_img/02_1.png' class=''></img></div>\n                <div class='jspsych-image' id='jspsych-image-1' data-choice='1' style='top: 0;     right: 0;'><img style=\"width: 100%; height: 100%;\" src='../static/human_exp_images/practice_img/02_0.png' class=''></img></div>\n                <div class='jspsych-image' id='jspsych-image-2' data-choice='2' style='bottom: 0;  left: 0;'><img style=\"width: 100%; height: 100%;\" src='../static/human_exp_images/practice_img/02_2.png' class=''></img></div>\n                <div class='jspsych-image' id='jspsych-image-3' data-choice='3' style='bottom: 0;  right: 0;'><img style=\"width: 100%; height: 100%;\" src='../static/human_exp_images/practice_img/02_3.png' class='correct-choice'></img></div>\n\n        </div>","response":null,"trial_type":"html-keyboard-response","trial_index":15,"time_elapsed":20403,"internal_node_id":"0.0-4.0-3.2"},{"rt":819,"stimulus":"<p style='font-size: 40px'>The practice session is over. The experiment begin now!</p> \n                <p>Please take pauses on only at the \"new rule\" pages.</p> \n                <p>Press any key to begin.</p>","response":" ","trial_type":"html-keyboard-response","trial_index":16,"time_elapsed":21228,"internal_node_id":"0.0-5.0"},{"success":true,"timeout":false,"failed_images":[],"failed_audio":[],"failed_video":[],"trial_type":"preload","trial_index":17,"time_elapsed":21369,"internal_node_id":"0.0-6.0"},{"rt":813,"stimulus":"<h1 style='font-size: 60px'>New Rule!</h1> <p>Press any key to begin.</p>","response":" ","trial_type":"html-keyboard-response","trial_index":18,"time_elapsed":22184,"internal_node_id":"0.0-7.0"},{"rt":null,"trial_type":"image-click","trial_index":19,"time_elapsed":22732,"internal_node_id":"0.0-8.0-0.0"},{"rt":1474,"response":1,"all_choices":["../static/human_exp_images/task_color/00_0.png","../static/human_exp_images/task_color/00_3.png","../static/human_exp_images/task_color/00_2.png","../static/human_exp_images/task_color/00_1.png"],"task":"response","correct_response":1,"shuffled_array":[0,3,2,1],"catch_trial":false,"trial_type":"image-click","trial_index":20,"time_elapsed":24208,"internal_node_id":"0.0-8.0-1.0","mouse_tracking_data":[{"x":1037,"y":501,"t":1,"event":"mousemove"},{"x":1016,"y":501,"t":13,"event":"mousemove"},{"x":1000,"y":491,"t":31,"event":"mousemove"},{"x":989,"y":490,"t":47,"event":"mousemove"},{"x":983,"y":488,"t":64,"event":"mousemove"},{"x":979,"y":488,"t":80,"event":"mousemove"},{"x":977,"y":488,"t":97,"event":"mousemove"},{"x":977,"y":487,"t":606,"event":"mousemove"},{"x":977,"y":485,"t":1129,"event":"mousemove"},{"x":977,"y":483,"t":1147,"event":"mousemove"},{"x":977,"y":482,"t":1165,"event":"mousemove"},{"x":977,"y":480,"t":1176,"event":"mousemove"},{"x":977,"y":478,"t":1183,"event":"mousemove"},{"x":977,"y":475,"t":1193,"event":"mousemove"},{"x":977,"y":473,"t":1194,"event":"mousemove"},{"x":987,"y":462,"t":1209,"event":"mousemove"},{"x":1021,"y":427,"t":1227,"event":"mousemove"},{"x":1081,"y":370,"t":1243,"event":"mousemove"},{"x":1159,"y":298,"t":1261,"event":"mousemove"},{"x":1214,"y":244,"t":1276,"event":"mousemove"},{"x":1262,"y":192,"t":1293,"event":"mousemove"},{"x":1273,"y":181,"t":1309,"event":"mousemove"},{"x":1282,"y":172,"t":1326,"event":"mousemove"},{"x":1287,"y":167,"t":1343,"event":"mousemove"},{"x":1287,"y":165,"t":1359,"event":"mousemove"},{"x":1289,"y":165,"t":1377,"event":"mousemove"}],"mouse_tracking_targets":{},"correct":true},{"rt":1731,"stimulus":"<p>How confident are you about your choice ? (click on the bar)</p>","slider_start":50,"response":100,"trial_type":"html-slider-response","trial_index":21,"time_elapsed":25941,"internal_node_id":"0.0-8.0-2.0"},{"rt":null,"stimulus":"\n        <div id='jspsych-image' style='position: relative; width: min(80vw, 80vh); height: min(80vw, 80vh);'>\n                \n                <div style='position: absolute; top: 40%; left: 30%; bottom: 40%; right: 30%;'><h1 style='font-size: 60px; color: green;'>Correct!</h1></div>\n                \n                <div class='jspsych-image' id='jspsych-image-0' data-choice='0' style='top: 0;     left: 0;'><img style=\"width: 100%; height: 100%;\" src='../static/human_exp_images/task_color/00_0.png' class=''></img></div>\n                <div class='jspsych-image' id='jspsych-image-1' data-choice='1' style='top: 0;     right: 0;'><img style=\"width: 100%; height: 100%;\" src='../static/human_exp_images/task_color/00_3.png' class='correct-choice'></img></div>\n                <div class='jspsych-image' id='jspsych-image-2' data-choice='2' style='bottom: 0;  left: 0;'><img style=\"width: 100%; height: 100%;\" src='../static/human_exp_images/task_color/00_2.png' class=''></img></div>\n                <div class='jspsych-image' id='jspsych-image-3' data-choice='3' style='bottom: 0;  right: 0;'><img style=\"width: 100%; height: 100%;\" src='../static/human_exp_images/task_color/00_1.png' class=''></img></div>\n\n        </div>","response":null,"trial_type":"html-keyboard-response","trial_index":22,"time_elapsed":27444,"internal_node_id":"0.0-8.0-3.0"},{"rt":null,"trial_type":"image-click","trial_index":23,"time_elapsed":27914,"internal_node_id":"0.0-8.0-0.1"},{"rt":1274,"response":0,"all_choices":["../static/human_exp_images/task_color/01_3.png","../static/human_exp_images/task_color/01_0.png","../static/human_exp_images/task_color/01_2.png","../static/human_exp_images/task_color/01_1.png"],"task":"response","correct_response":0,"shuffled_array":[3,0,2,1],"catch_trial":false,"trial_type":"image-click","trial_index":24,"time_elapsed":29190,"internal_node_id":"0.0-8.0-1.1","mouse_tracking_data":[{"x":1046,"y":471,"t":1,"event":"mousemove"},{"x":1038,"y":471,"t":15,"event":"mousemove"},{"x":1033,"y":471,"t":32,"event":"mousemove"},{"x":1028,"y":471,"t":48,"event":"mousemove"},{"x":1024,"y":471,"t":65,"event":"mousemove"},{"x":1019,"y":471,"t":81,"event":"mousemove"},{"x":1016,"y":471,"t":99,"event":"mousemove"},{"x":1014,"y":471,"t":115,"event":"mousemove"},{"x":1012,"y":471,"t":132,"event":"mousemove"},{"x":1012,"y":469,"t":149,"event":"mousemove"},{"x":1012,"y":468,"t":358,"event":"mousemove"},{"x":1012,"y":466,"t":386,"event":"mousemove"},{"x":1012,"y":464,"t":405,"event":"mousemove"},{"x":1012,"y":463,"t":413,"event":"mousemove"},{"x":1012,"y":461,"t":422,"event":"mousemove"},{"x":1014,"y":459,"t":431,"event":"mousemove"},{"x":1014,"y":457,"t":436,"event":"mousemove"},{"x":1016,"y":456,"t":440,"event":"mousemove"},{"x":1016,"y":454,"t":450,"event":"mousemove"},{"x":1017,"y":454,"t":452,"event":"mousemove"},{"x":1019,"y":451,"t":467,"event":"mousemove"},{"x":1021,"y":449,"t":484,"event":"mousemove"},{"x":1022,"y":446,"t":501,"event":"mousemove"},{"x":1024,"y":444,"t":518,"event":"mousemove"},{"x":1026,"y":442,"t":534,"event":"mousemove"},{"x":1028,"y":440,"t":551,"event":"mousemove"},{"x":1028,"y":439,"t":716,"event":"mousemove"},{"x":1028,"y":437,"t":936,"event":"mousemove"},{"x":1028,"y":435,"t":941,"event":"mousemove"},{"x":1024,"y":432,"t":950,"event":"mousemove"},{"x":1022,"y":432,"t":951,"event":"mousemove"},{"x":1016,"y":428,"t":959,"event":"mousemove"},{"x":1012,"y":427,"t":960,"event":"mousemove"},{"x":1005,"y":423,"t":970,"event":"mousemove"},{"x":1002,"y":422,"t":972,"event":"mousemove"},{"x":993,"y":416,"t":979,"event":"mousemove"},{"x":988,"y":415,"t":982,"event":"mousemove"},{"x":978,"y":409,"t":989,"event":"mousemove"},{"x":974,"y":407,"t":993,"event":"mousemove"},{"x":965,"y":401,"t":997,"event":"mousemove"},{"x":954,"y":394,"t":999,"event":"mousemove"},{"x":931,"y":378,"t":1016,"event":"mousemove"},{"x":892,"y":354,"t":1032,"event":"mousemove"},{"x":847,"y":326,"t":1049,"event":"mousemove"},{"x":807,"y":294,"t":1065,"event":"mousemove"},{"x":765,"y":260,"t":1081,"event":"mousemove"},{"x":733,"y":231,"t":1099,"event":"mousemove"},{"x":723,"y":218,"t":1115,"event":"mousemove"},{"x":709,"y":205,"t":1132,"event":"mousemove"},{"x":702,"y":198,"t":1149,"event":"mousemove"},{"x":699,"y":198,"t":1166,"event":"mousemove"},{"x":695,"y":195,"t":1181,"event":"mousemove"},{"x":694,"y":195,"t":1199,"event":"mousemove"}],"mouse_tracking_targets":{},"correct":true},{"rt":1319,"stimulus":"<p>How confident are you about your choice ? (click on the bar)</p>","slider_start":50,"response":100,"trial_type":"html-slider-response","trial_index":25,"time_elapsed":30510,"internal_node_id":"0.0-8.0-2.1"},{"rt":null,"stimulus":"\n        <div id='jspsych-image' style='position: relative; width: min(80vw, 80vh); height: min(80vw, 80vh);'>\n                \n                <div style='position: absolute; top: 40%; left: 30%; bottom: 40%; right: 30%;'><h1 style='font-size: 60px; color: green;'>Correct!</h1></div>\n                \n                <div class='jspsych-image' id='jspsych-image-0' data-choice='0' style='top: 0;     left: 0;'><img style=\"width: 100%; height: 100%;\" src='../static/human_exp_images/task_color/01_3.png' class='correct-choice'></img></div>\n                <div class='jspsych-image' id='jspsych-image-1' data-choice='1' style='top: 0;     right: 0;'><img style=\"width: 100%; height: 100%;\" src='../static/human_exp_images/task_color/01_0.png' class=''></img></div>\n                <div class='jspsych-image' id='jspsych-image-2' data-choice='2' style='bottom: 0;  left: 0;'><img style=\"width: 100%; height: 100%;\" src='../static/human_exp_images/task_color/01_2.png' class=''></img></div>\n                <div class='jspsych-image' id='jspsych-image-3' data-choice='3' style='bottom: 0;  right: 0;'><img style=\"width: 100%; height: 100%;\" src='../static/human_exp_images/task_color/01_1.png' class=''></img></div>\n\n        </div>","response":null,"trial_type":"html-keyboard-response","trial_index":26,"time_elapsed":32013,"internal_node_id":"0.0-8.0-3.1"},{"rt":null,"trial_type":"image-click","trial_index":27,"time_elapsed":32386,"internal_node_id":"0.0-8.0-0.2"},{"rt":868,"response":1,"all_choices":["../static/human_exp_images/task_color/02_0.png","../static/human_exp_images/task_color/02_3.png","../static/human_exp_images/task_color/02_1.png","../static/human_exp_images/task_color/02_2.png"],"task":"response","correct_response":1,"shuffled_array":[0,3,1,2],"catch_trial":false,"trial_type":"image-click","trial_index":28,"time_elapsed":33257,"internal_node_id":"0.0-8.0-1.2","mouse_tracking_data":[{"x":1042,"y":466,"t":1,"event":"mousemove"},{"x":1028,"y":462,"t":14,"event":"mousemove"},{"x":1021,"y":462,"t":31,"event":"mousemove"},{"x":1020,"y":462,"t":47,"event":"mousemove"},{"x":1018,"y":462,"t":74,"event":"mousemove"},{"x":1018,"y":460,"t":293,"event":"mousemove"},{"x":1018,"y":459,"t":313,"event":"mousemove"},{"x":1018,"y":457,"t":320,"event":"mousemove"},{"x":1021,"y":457,"t":323,"event":"mousemove"},{"x":1027,"y":455,"t":329,"event":"mousemove"},{"x":1028,"y":454,"t":333,"event":"mousemove"},{"x":1033,"y":450,"t":337,"event":"mousemove"},{"x":1036,"y":448,"t":338,"event":"mousemove"},{"x":1042,"y":446,"t":355,"event":"mousemove"},{"x":1052,"y":439,"t":371,"event":"mousemove"},{"x":1062,"y":430,"t":388,"event":"mousemove"},{"x":1071,"y":420,"t":405,"event":"mousemove"},{"x":1076,"y":415,"t":421,"event":"mousemove"},{"x":1078,"y":411,"t":438,"event":"mousemove"},{"x":1080,"y":410,"t":454,"event":"mousemove"},{"x":1080,"y":408,"t":472,"event":"mousemove"},{"x":1080,"y":406,"t":548,"event":"mousemove"},{"x":1080,"y":405,"t":575,"event":"mousemove"},{"x":1081,"y":405,"t":576,"event":"mousemove"},{"x":1085,"y":399,"t":593,"event":"mousemove"},{"x":1092,"y":391,"t":610,"event":"mousemove"},{"x":1105,"y":372,"t":626,"event":"mousemove"},{"x":1121,"y":353,"t":642,"event":"mousemove"},{"x":1134,"y":332,"t":659,"event":"mousemove"},{"x":1142,"y":315,"t":676,"event":"mousemove"},{"x":1151,"y":305,"t":692,"event":"mousemove"},{"x":1154,"y":296,"t":709,"event":"mousemove"},{"x":1158,"y":287,"t":726,"event":"mousemove"},{"x":1159,"y":284,"t":743,"event":"mousemove"},{"x":1159,"y":282,"t":760,"event":"mousemove"},{"x":1159,"y":281,"t":776,"event":"mousemove"}],"mouse_tracking_targets":{},"correct":true},{"rt":1565,"stimulus":"<p>How confident are you about your choice ? (click on the bar)</p>","slider_start":50,"response":100,"trial_type":"html-slider-response","trial_index":29,"time_elapsed":34823,"internal_node_id":"0.0-8.0-2.2"},{"rt":null,"stimulus":"\n        <div id='jspsych-image' style='position: relative; width: min(80vw, 80vh); height: min(80vw, 80vh);'>\n                \n                <div style='position: absolute; top: 40%; left: 30%; bottom: 40%; right: 30%;'><h1 style='font-size: 60px; color: green;'>Correct!</h1></div>\n                \n                <div class='jspsych-image' id='jspsych-image-0' data-choice='0' style='top: 0;     left: 0;'><img style=\"width: 100%; height: 100%;\" src='../static/human_exp_images/task_color/02_0.png' class=''></img></div>\n                <div class='jspsych-image' id='jspsych-image-1' data-choice='1' style='top: 0;     right: 0;'><img style=\"width: 100%; height: 100%;\" src='../static/human_exp_images/task_color/02_3.png' class='correct-choice'></img></div>\n                <div class='jspsych-image' id='jspsych-image-2' data-choice='2' style='bottom: 0;  left: 0;'><img style=\"width: 100%; height: 100%;\" src='../static/human_exp_images/task_color/02_1.png' class=''></img></div>\n                <div class='jspsych-image' id='jspsych-image-3' data-choice='3' style='bottom: 0;  right: 0;'><img style=\"width: 100%; height: 100%;\" src='../static/human_exp_images/task_color/02_2.png' class=''></img></div>\n\n        </div>","response":null,"trial_type":"html-keyboard-response","trial_index":30,"time_elapsed":36327,"internal_node_id":"0.0-8.0-3.2"},{"rt":null,"trial_type":"image-click","trial_index":31,"time_elapsed":36732,"internal_node_id":"0.0-8.0-0.3"},{"rt":1100,"response":3,"all_choices":["../static/human_exp_images/task_color/03_2.png","../static/human_exp_images/task_color/03_1.png","../static/human_exp_images/task_color/03_0.png","../static/human_exp_images/task_color/03_3.png"],"task":"response","correct_response":3,"shuffled_array":[2,1,0,3],"catch_trial":false,"trial_type":"image-click","trial_index":32,"time_elapsed":37834,"internal_node_id":"0.0-8.0-1.3","mouse_tracking_data":[{"x":1050,"y":486,"t":1,"event":"mousemove"},{"x":1031,"y":481,"t":14,"event":"mousemove"},{"x":1021,"y":479,"t":31,"event":"mousemove"},{"x":1010,"y":476,"t":48,"event":"mousemove"},{"x":1003,"y":474,"t":65,"event":"mousemove"},{"x":998,"y":472,"t":82,"event":"mousemove"},{"x":993,"y":471,"t":97,"event":"mousemove"},{"x":991,"y":471,"t":115,"event":"mousemove"},{"x":991,"y":469,"t":381,"event":"mousemove"},{"x":991,"y":467,"t":389,"event":"mousemove"},{"x":993,"y":467,"t":389,"event":"mousemove"},{"x":997,"y":464,"t":398,"event":"mousemove"},{"x":1000,"y":464,"t":401,"event":"mousemove"},{"x":1003,"y":462,"t":407,"event":"mousemove"},{"x":1005,"y":460,"t":413,"event":"mousemove"},{"x":1009,"y":457,"t":418,"event":"mousemove"},{"x":1010,"y":457,"t":423,"event":"mousemove"},{"x":1015,"y":452,"t":427,"event":"mousemove"},{"x":1017,"y":452,"t":429,"event":"mousemove"},{"x":1029,"y":440,"t":445,"event":"mousemove"},{"x":1039,"y":431,"t":462,"event":"mousemove"},{"x":1050,"y":419,"t":479,"event":"mousemove"},{"x":1060,"y":411,"t":496,"event":"mousemove"},{"x":1063,"y":407,"t":511,"event":"mousemove"},{"x":1067,"y":406,"t":528,"event":"mousemove"},{"x":1067,"y":407,"t":702,"event":"mousemove"},{"x":1067,"y":411,"t":710,"event":"mousemove"},{"x":1067,"y":413,"t":711,"event":"mousemove"},{"x":1067,"y":416,"t":728,"event":"mousemove"},{"x":1067,"y":428,"t":744,"event":"mousemove"},{"x":1068,"y":442,"t":760,"event":"mousemove"},{"x":1070,"y":457,"t":778,"event":"mousemove"},{"x":1073,"y":481,"t":794,"event":"mousemove"},{"x":1077,"y":504,"t":811,"event":"mousemove"},{"x":1085,"y":525,"t":828,"event":"mousemove"},{"x":1102,"y":569,"t":845,"event":"mousemove"},{"x":1126,"y":610,"t":861,"event":"mousemove"},{"x":1145,"y":648,"t":877,"event":"mousemove"},{"x":1161,"y":678,"t":895,"event":"mousemove"},{"x":1168,"y":689,"t":911,"event":"mousemove"},{"x":1173,"y":692,"t":928,"event":"mousemove"},{"x":1175,"y":694,"t":944,"event":"mousemove"}],"mouse_tracking_targets":{},"correct":true},{"rt":1078,"stimulus":"<p>How confident are you about your choice ? (click on the bar)</p>","slider_start":50,"response":100,"trial_type":"html-slider-response","trial_index":33,"time_elapsed":38914,"internal_node_id":"0.0-8.0-2.3"},{"rt":null,"stimulus":"\n        <div id='jspsych-image' style='position: relative; width: min(80vw, 80vh); height: min(80vw, 80vh);'>\n                \n                <div style='position: absolute; top: 40%; left: 30%; bottom: 40%; right: 30%;'><h1 style='font-size: 60px; color: green;'>Correct!</h1></div>\n                \n                <div class='jspsych-image' id='jspsych-image-0' data-choice='0' style='top: 0;     left: 0;'><img style=\"width: 100%; height: 100%;\" src='../static/human_exp_images/task_color/03_2.png' class=''></img></div>\n                <div class='jspsych-image' id='jspsych-image-1' data-choice='1' style='top: 0;     right: 0;'><img style=\"width: 100%; height: 100%;\" src='../static/human_exp_images/task_color/03_1.png' class=''></img></div>\n                <div class='jspsych-image' id='jspsych-image-2' data-choice='2' style='bottom: 0;  left: 0;'><img style=\"width: 100%; height: 100%;\" src='../static/human_exp_images/task_color/03_0.png' class=''></img></div>\n                <div class='jspsych-image' id='jspsych-image-3' data-choice='3' style='bottom: 0;  right: 0;'><img style=\"width: 100%; height: 100%;\" src='../static/human_exp_images/task_color/03_3.png' class='correct-choice'></img></div>\n\n        </div>","response":null,"trial_type":"html-keyboard-response","trial_index":34,"time_elapsed":40415,"internal_node_id":"0.0-8.0-3.3"}]