[{"success":true,"timeout":false,"failed_images":[],"failed_audio":[],"failed_video":[],"trial_type":"preload","trial_index":0,"time_elapsed":10,"internal_node_id":"0.0-0.0"},{"rt":774,"stimulus":"<p style='font-size: 40px'>Welcome to the experiment.</p><p style='font-size: 30px'>Press any key to begin.</p>","response":" ","trial_type":"html-keyboard-response","trial_index":1,"time_elapsed":786,"internal_node_id":"0.0-1.0"},{"rt":891,"stimulus":"\n    <p>In this experiment, 4 images will appear on the screen. 3 out of 4 images were generated with a certain rule while one image (the odd one out) does not respect this rule. Select the odd one out by clicking on the image.</p>\n    <p>Following your choice, you will be asked to rate how confident you were about your choice on a scale from 1 to 100. Then, you will receive feedback on the trial.</p>\n    <p>For each rule you will perform 20 trials. You will be notified at each rule change. </p>\n    <p> Press any button to continue </p>\n    <div style='margin: auto; position: relative; width: 400px; height: 400px;'>\n        <div style='position: absolute; top: 0;     left: 0; '><img src='../static/img/square.png'></img></div>\n        <div style='position: absolute; top: 0;     right: 0;'><img src='../static/img/square.png'></img></div>\n        <div style='position: absolute; bottom: 0;  left: 0; '><img src='../static/img/square.png'></img></div>\n        <div style='position: absolute; bottom: 0;  right: 0;'><img src='../static/img/square.png'></img></div>\n    </div>\n","response":" ","trial_type":"html-keyboard-response","trial_index":2,"time_elapsed":1680,"internal_node_id":"0.0-2.0"},{"rt":727,"stimulus":"<h1 style='font-size: 60px'>New Rule!</h1> <p>Press any key to begin.</p>","response":" ","trial_type":"html-keyboard-response","trial_index":3,"time_elapsed":4411,"internal_node_id":"0.0-3.0"},{"rt":957,"response":1,"all_choices":["../static/human_exp_images/task_shape/00_1.png","../static/human_exp_images/task_shape/00_3.png","../static/human_exp_images/task_shape/00_0.png","../static/human_exp_images/task_shape/00_2.png"],"task":"response","correct_response":1,"shuffled_array":[1,3,0,2],"trial_type":"image-click","trial_index":4,"time_elapsed":5371,"internal_node_id":"0.0-4.0-0.0","mouse_tracking_data":[{"x":997,"y":489,"t":577,"event":"mousemove"},{"x":997,"y":482,"t":581,"event":"mousemove"},{"x":999,"y":478,"t":586,"event":"mousemove"},{"x":1003,"y":465,"t":591,"event":"mousemove"},{"x":1007,"y":453,"t":592,"event":"mousemove"},{"x":1022,"y":427,"t":608,"event":"mousemove"},{"x":1044,"y":387,"t":625,"event":"mousemove"},{"x":1068,"y":349,"t":641,"event":"mousemove"},{"x":1086,"y":320,"t":658,"event":"mousemove"},{"x":1105,"y":297,"t":674,"event":"mousemove"},{"x":1117,"y":281,"t":691,"event":"mousemove"},{"x":1125,"y":272,"t":709,"event":"mousemove"},{"x":1130,"y":267,"t":725,"event":"mousemove"},{"x":1139,"y":262,"t":742,"event":"mousemove"},{"x":1144,"y":255,"t":758,"event":"mousemove"},{"x":1153,"y":250,"t":775,"event":"mousemove"},{"x":1158,"y":245,"t":791,"event":"mousemove"},{"x":1166,"y":238,"t":808,"event":"mousemove"},{"x":1173,"y":235,"t":824,"event":"mousemove"},{"x":1182,"y":228,"t":842,"event":"mousemove"},{"x":1188,"y":223,"t":858,"event":"mousemove"},{"x":1193,"y":219,"t":875,"event":"mousemove"},{"x":1193,"y":218,"t":891,"event":"mousemove"}],"mouse_tracking_targets":{},"correct":true},{"rt":1044,"stimulus":"<p>How confident are you about your choice ?</p>","slider_start":50,"response":50,"trial_type":"html-slider-response","trial_index":5,"time_elapsed":6419,"internal_node_id":"0.0-4.0-1.0"},{"rt":null,"stimulus":"\n        <div id='jspsych-image' style='position: relative; width: min(80vw, 80vh); height: min(80vw, 80vh);'>\n                \n                <div style='position: absolute; top: 40%; left: 30%; bottom: 40%; right: 30%;'><h1 style='font-size: 60px; color: green;'>Correct!</h1></div>\n                \n                <div class='jspsych-image' id='jspsych-image-0' data-choice='0' style='top: 0;     left: 0;'><img style=\"max-width: 100%; max-height: 100%;\" src='../static/human_exp_images/task_shape/00_1.png' class=''></img></div>\n                <div class='jspsych-image' id='jspsych-image-1' data-choice='1' style='top: 0;     right: 0;'><img style=\"max-width: 100%; max-height: 100%;\" src='../static/human_exp_images/task_shape/00_3.png' class='correct-choice'></img></div>\n                <div class='jspsych-image' id='jspsych-image-2' data-choice='2' style='bottom: 0;  left: 0;'><img style=\"max-width: 100%; max-height: 100%;\" src='../static/human_exp_images/task_shape/00_0.png' class=''></img></div>\n                <div class='jspsych-image' id='jspsych-image-3' data-choice='3' style='bottom: 0;  right: 0;'><img style=\"max-width: 100%; max-height: 100%;\" src='../static/human_exp_images/task_shape/00_2.png' class=''></img></div>\n\n        </div>","response":null,"trial_type":"html-keyboard-response","trial_index":6,"time_elapsed":7924,"internal_node_id":"0.0-4.0-2.0"},{"rt":1194,"stimulus":"<p>You responded correctly on 100% of the trials.</p>\n    <p>Your average response time was 957ms.</p>\n    <p>Press any key to complete the experiment. Thank you!</p>","response":" ","trial_type":"html-keyboard-response","trial_index":7,"time_elapsed":9119,"internal_node_id":"0.0-5.0","interactions":"[{\"event\":\"focus\",\"trial\":0,\"time\":1}]"}]