[{"success":true,"timeout":false,"failed_images":[],"failed_audio":[],"failed_video":[],"trial_type":"preload","trial_index":0,"time_elapsed":1107,"internal_node_id":"0.0-0.0"},{"rt":992,"stimulus":"<p style='font-size: 40px'>Welcome to the experiment.</p><p style='font-size: 30px'>Press any key to begin.</p>","response":" ","trial_type":"html-keyboard-response","trial_index":1,"time_elapsed":2101,"internal_node_id":"0.0-1.0"},{"rt":1688,"stimulus":"\n    <p>In this experiment, 4 images will appear on the screen. 3 out of 4 images were generated with a certain rule while one image (the odd one out) does not respect this rule.</p>\n    <p>Select the odd one out by clicking on the image.</p>\n    <p>Following your choice, you will be asked to rate how confident you were about your choice on a scale from 1 to 100. Then, you will receive feedback on the trial.</p>\n    <p>For each rule you will perform 21 trials. You will be notified at each rule change.</p>\n    <p>The following 3 trials will allow you to get familiar with the odd-one-out task. The experiment starts after this practice session.</p>\n    \n    <p>Press any button to continue</p>\n    <div style='margin: auto; position: relative; width: 400px; height: 400px;'>\n        <div style='position: absolute; top: 0;     left: 0; '><img src='../static/img/square.png'></img></div>\n        <div style='position: absolute; top: 0;     right: 0;'><img src='../static/img/square.png'></img></div>\n        <div style='position: absolute; bottom: 0;  left: 0; '><img src='../static/img/square.png'></img></div>\n        <div style='position: absolute; bottom: 0;  right: 0;'><img src='../static/img/square.png'></img></div>\n    </div>\n","response":" ","trial_type":"html-keyboard-response","trial_index":2,"time_elapsed":3790,"internal_node_id":"0.0-2.0"},{"rt":null,"trial_type":"image-click","trial_index":3,"time_elapsed":6644,"internal_node_id":"0.0-3.0-0.0"},{"rt":1232,"response":2,"all_choices":["../static/human_exp_images/practice_img/00_2.png","../static/human_exp_images/practice_img/00_0.png","../static/human_exp_images/practice_img/00_3.png","../static/human_exp_images/practice_img/00_1.png"],"task":"response","correct_response":2,"shuffled_array":[2,0,3,1],"catch_trial":false,"trial_type":"image-click","trial_index":4,"time_elapsed":7877,"internal_node_id":"0.0-3.0-1.0","mouse_tracking_data":[{"x":935,"y":546,"t":0,"event":"mousemove"},{"x":935,"y":539,"t":15,"event":"mousemove"},{"x":935,"y":536,"t":33,"event":"mousemove"},{"x":935,"y":522,"t":49,"event":"mousemove"},{"x":935,"y":505,"t":66,"event":"mousemove"},{"x":940,"y":486,"t":81,"event":"mousemove"},{"x":945,"y":472,"t":99,"event":"mousemove"},{"x":951,"y":463,"t":116,"event":"mousemove"},{"x":959,"y":452,"t":132,"event":"mousemove"},{"x":961,"y":451,"t":150,"event":"mousemove"},{"x":964,"y":445,"t":173,"event":"mousemove"},{"x":968,"y":444,"t":182,"event":"mousemove"},{"x":969,"y":444,"t":199,"event":"mousemove"},{"x":969,"y":442,"t":312,"event":"mousemove"},{"x":969,"y":440,"t":402,"event":"mousemove"},{"x":969,"y":446,"t":868,"event":"mousemove"},{"x":969,"y":448,"t":870,"event":"mousemove"},{"x":951,"y":471,"t":885,"event":"mousemove"},{"x":939,"y":484,"t":902,"event":"mousemove"},{"x":919,"y":506,"t":919,"event":"mousemove"},{"x":898,"y":527,"t":936,"event":"mousemove"},{"x":879,"y":544,"t":952,"event":"mousemove"},{"x":867,"y":556,"t":970,"event":"mousemove"},{"x":855,"y":568,"t":985,"event":"mousemove"},{"x":835,"y":587,"t":1002,"event":"mousemove"},{"x":816,"y":611,"t":1020,"event":"mousemove"},{"x":796,"y":637,"t":1036,"event":"mousemove"},{"x":778,"y":655,"t":1052,"event":"mousemove"},{"x":768,"y":665,"t":1069,"event":"mousemove"},{"x":760,"y":674,"t":1086,"event":"mousemove"},{"x":758,"y":679,"t":1102,"event":"mousemove"},{"x":756,"y":679,"t":1119,"event":"mousemove"},{"x":754,"y":679,"t":1140,"event":"mousemove"}],"mouse_tracking_targets":{},"correct":true},{"rt":1586,"stimulus":"<p>How confident are you about your choice ?</p>","slider_start":50,"response":99,"trial_type":"html-slider-response","trial_index":5,"time_elapsed":9465,"internal_node_id":"0.0-3.0-2.0"},{"rt":null,"stimulus":"\n        <div id='jspsych-image' style='position: relative; width: min(80vw, 80vh); height: min(80vw, 80vh);'>\n                \n                <div style='position: absolute; top: 40%; left: 30%; bottom: 40%; right: 30%;'><h1 style='font-size: 60px; color: green;'>Correct!</h1></div>\n                \n                <div class='jspsych-image' id='jspsych-image-0' data-choice='0' style='top: 0;     left: 0;'><img style=\"width: 100%; height: 100%;\" src='../static/human_exp_images/practice_img/00_2.png' class=''></img></div>\n                <div class='jspsych-image' id='jspsych-image-1' data-choice='1' style='top: 0;     right: 0;'><img style=\"width: 100%; height: 100%;\" src='../static/human_exp_images/practice_img/00_0.png' class=''></img></div>\n                <div class='jspsych-image' id='jspsych-image-2' data-choice='2' style='bottom: 0;  left: 0;'><img style=\"width: 100%; height: 100%;\" src='../static/human_exp_images/practice_img/00_3.png' class='correct-choice'></img></div>\n                <div class='jspsych-image' id='jspsych-image-3' data-choice='3' style='bottom: 0;  right: 0;'><img style=\"width: 100%; height: 100%;\" src='../static/human_exp_images/practice_img/00_1.png' class=''></img></div>\n\n        </div>","response":null,"trial_type":"html-keyboard-response","trial_index":6,"time_elapsed":10970,"internal_node_id":"0.0-3.0-3.0"},{"rt":null,"trial_type":"image-click","trial_index":7,"time_elapsed":10975,"internal_node_id":"0.0-3.0-0.1"},{"rt":2992,"response":2,"all_choices":["../static/human_exp_images/practice_img/01_0.png","../static/human_exp_images/practice_img/01_2.png","../static/human_exp_images/practice_img/01_3.png","../static/human_exp_images/practice_img/01_1.png"],"task":"response","correct_response":2,"shuffled_array":[0,2,3,1],"catch_trial":false,"trial_type":"image-click","trial_index":8,"time_elapsed":13972,"internal_node_id":"0.0-3.0-1.1","mouse_tracking_data":[{"x":1037,"y":498,"t":894,"event":"mousemove"},{"x":1030,"y":498,"t":896,"event":"mousemove"},{"x":1018,"y":498,"t":913,"event":"mousemove"},{"x":1015,"y":498,"t":930,"event":"mousemove"},{"x":1010,"y":498,"t":946,"event":"mousemove"},{"x":1001,"y":498,"t":963,"event":"mousemove"},{"x":991,"y":498,"t":979,"event":"mousemove"},{"x":977,"y":511,"t":997,"event":"mousemove"},{"x":956,"y":536,"t":1012,"event":"mousemove"},{"x":938,"y":554,"t":1029,"event":"mousemove"},{"x":916,"y":588,"t":1047,"event":"mousemove"},{"x":891,"y":618,"t":1063,"event":"mousemove"},{"x":870,"y":642,"t":1080,"event":"mousemove"},{"x":856,"y":659,"t":1096,"event":"mousemove"},{"x":842,"y":669,"t":1113,"event":"mousemove"},{"x":836,"y":674,"t":1129,"event":"mousemove"},{"x":828,"y":684,"t":1147,"event":"mousemove"},{"x":819,"y":691,"t":1162,"event":"mousemove"},{"x":811,"y":698,"t":1179,"event":"mousemove"},{"x":804,"y":703,"t":1197,"event":"mousemove"},{"x":799,"y":710,"t":1213,"event":"mousemove"},{"x":792,"y":717,"t":1230,"event":"mousemove"},{"x":787,"y":720,"t":1246,"event":"mousemove"},{"x":780,"y":727,"t":1263,"event":"mousemove"},{"x":773,"y":732,"t":1280,"event":"mousemove"},{"x":766,"y":737,"t":1297,"event":"mousemove"},{"x":761,"y":741,"t":1313,"event":"mousemove"},{"x":758,"y":741,"t":1330,"event":"mousemove"},{"x":756,"y":741,"t":1346,"event":"mousemove"}],"mouse_tracking_targets":{},"correct":true},{"rt":1266,"stimulus":"<p>How confident are you about your choice ?</p>","slider_start":50,"response":93,"trial_type":"html-slider-response","trial_index":9,"time_elapsed":15240,"internal_node_id":"0.0-3.0-2.1"},{"rt":null,"stimulus":"\n        <div id='jspsych-image' style='position: relative; width: min(80vw, 80vh); height: min(80vw, 80vh);'>\n                \n                <div style='position: absolute; top: 40%; left: 30%; bottom: 40%; right: 30%;'><h1 style='font-size: 60px; color: green;'>Correct!</h1></div>\n                \n                <div class='jspsych-image' id='jspsych-image-0' data-choice='0' style='top: 0;     left: 0;'><img style=\"width: 100%; height: 100%;\" src='../static/human_exp_images/practice_img/01_0.png' class=''></img></div>\n                <div class='jspsych-image' id='jspsych-image-1' data-choice='1' style='top: 0;     right: 0;'><img style=\"width: 100%; height: 100%;\" src='../static/human_exp_images/practice_img/01_2.png' class=''></img></div>\n                <div class='jspsych-image' id='jspsych-image-2' data-choice='2' style='bottom: 0;  left: 0;'><img style=\"width: 100%; height: 100%;\" src='../static/human_exp_images/practice_img/01_3.png' class='correct-choice'></img></div>\n                <div class='jspsych-image' id='jspsych-image-3' data-choice='3' style='bottom: 0;  right: 0;'><img style=\"width: 100%; height: 100%;\" src='../static/human_exp_images/practice_img/01_1.png' class=''></img></div>\n\n        </div>","response":null,"trial_type":"html-keyboard-response","trial_index":10,"time_elapsed":16743,"internal_node_id":"0.0-3.0-3.1"},{"rt":null,"trial_type":"image-click","trial_index":11,"time_elapsed":18233,"internal_node_id":"0.0-3.0-0.2"},{"rt":1368,"response":1,"all_choices":["../static/human_exp_images/practice_img/02_0.png","../static/human_exp_images/practice_img/02_3.png","../static/human_exp_images/practice_img/02_1.png","../static/human_exp_images/practice_img/02_2.png"],"task":"response","correct_response":1,"shuffled_array":[0,3,1,2],"catch_trial":false,"trial_type":"image-click","trial_index":12,"time_elapsed":19603,"internal_node_id":"0.0-3.0-1.2","mouse_tracking_data":[{"x":939,"y":543,"t":1,"event":"mousemove"},{"x":941,"y":538,"t":13,"event":"mousemove"},{"x":941,"y":535,"t":29,"event":"mousemove"},{"x":941,"y":533,"t":47,"event":"mousemove"},{"x":941,"y":530,"t":64,"event":"mousemove"},{"x":943,"y":528,"t":80,"event":"mousemove"},{"x":946,"y":523,"t":97,"event":"mousemove"},{"x":948,"y":520,"t":113,"event":"mousemove"},{"x":949,"y":516,"t":130,"event":"mousemove"},{"x":949,"y":514,"t":147,"event":"mousemove"},{"x":949,"y":513,"t":163,"event":"mousemove"},{"x":949,"y":511,"t":180,"event":"mousemove"},{"x":949,"y":509,"t":197,"event":"mousemove"},{"x":951,"y":504,"t":214,"event":"mousemove"},{"x":955,"y":497,"t":230,"event":"mousemove"},{"x":955,"y":494,"t":247,"event":"mousemove"},{"x":955,"y":491,"t":263,"event":"mousemove"},{"x":955,"y":489,"t":281,"event":"mousemove"},{"x":955,"y":487,"t":302,"event":"mousemove"},{"x":955,"y":485,"t":320,"event":"mousemove"},{"x":955,"y":484,"t":613,"event":"mousemove"},{"x":956,"y":480,"t":621,"event":"mousemove"},{"x":958,"y":479,"t":623,"event":"mousemove"},{"x":967,"y":463,"t":639,"event":"mousemove"},{"x":976,"y":447,"t":657,"event":"mousemove"},{"x":1003,"y":407,"t":672,"event":"mousemove"},{"x":1039,"y":362,"t":689,"event":"mousemove"},{"x":1080,"y":315,"t":706,"event":"mousemove"},{"x":1104,"y":290,"t":723,"event":"mousemove"},{"x":1134,"y":268,"t":738,"event":"mousemove"},{"x":1150,"y":257,"t":755,"event":"mousemove"},{"x":1165,"y":248,"t":773,"event":"mousemove"},{"x":1172,"y":241,"t":788,"event":"mousemove"},{"x":1184,"y":230,"t":806,"event":"mousemove"},{"x":1193,"y":223,"t":822,"event":"mousemove"},{"x":1198,"y":220,"t":839,"event":"mousemove"},{"x":1199,"y":218,"t":856,"event":"mousemove"}],"mouse_tracking_targets":{},"correct":true},{"rt":1260,"stimulus":"<p>How confident are you about your choice ?</p>","slider_start":50,"response":15,"trial_type":"html-slider-response","trial_index":13,"time_elapsed":20865,"internal_node_id":"0.0-3.0-2.2"},{"rt":null,"stimulus":"\n        <div id='jspsych-image' style='position: relative; width: min(80vw, 80vh); height: min(80vw, 80vh);'>\n                \n                <div style='position: absolute; top: 40%; left: 30%; bottom: 40%; right: 30%;'><h1 style='font-size: 60px; color: green;'>Correct!</h1></div>\n                \n                <div class='jspsych-image' id='jspsych-image-0' data-choice='0' style='top: 0;     left: 0;'><img style=\"width: 100%; height: 100%;\" src='../static/human_exp_images/practice_img/02_0.png' class=''></img></div>\n                <div class='jspsych-image' id='jspsych-image-1' data-choice='1' style='top: 0;     right: 0;'><img style=\"width: 100%; height: 100%;\" src='../static/human_exp_images/practice_img/02_3.png' class='correct-choice'></img></div>\n                <div class='jspsych-image' id='jspsych-image-2' data-choice='2' style='bottom: 0;  left: 0;'><img style=\"width: 100%; height: 100%;\" src='../static/human_exp_images/practice_img/02_1.png' class=''></img></div>\n                <div class='jspsych-image' id='jspsych-image-3' data-choice='3' style='bottom: 0;  right: 0;'><img style=\"width: 100%; height: 100%;\" src='../static/human_exp_images/practice_img/02_2.png' class=''></img></div>\n\n        </div>","response":null,"trial_type":"html-keyboard-response","trial_index":14,"time_elapsed":22369,"internal_node_id":"0.0-3.0-3.2"},{"rt":1009,"stimulus":"<p style='font-size: 40px'>The practice session is over. The experiment begin now!</p> \n                <p>Please take pauses on only at the \"new rule\" pages.</p> \n                <p>Press any key to begin.</p>","response":" ","trial_type":"html-keyboard-response","trial_index":15,"time_elapsed":23379,"internal_node_id":"0.0-4.0"},{"rt":725,"stimulus":"<h1 style='font-size: 60px'>New Rule!</h1> <p>Press any key to begin.</p>","response":" ","trial_type":"html-keyboard-response","trial_index":16,"time_elapsed":24105,"internal_node_id":"0.0-5.0"},{"rt":null,"trial_type":"image-click","trial_index":17,"time_elapsed":24108,"internal_node_id":"0.0-6.0-0.0"},{"rt":1066,"response":1,"all_choices":["../static/human_exp_images/task_size/00_2.png","../static/human_exp_images/task_size/00_3.png","../static/human_exp_images/task_size/00_1.png","../static/human_exp_images/task_size/00_0.png"],"task":"response","correct_response":1,"shuffled_array":[2,3,1,0],"catch_trial":false,"trial_type":"image-click","trial_index":18,"time_elapsed":25178,"internal_node_id":"0.0-6.0-1.0","mouse_tracking_data":[{"x":987,"y":505,"t":711,"event":"mousemove"},{"x":987,"y":500,"t":719,"event":"mousemove"},{"x":987,"y":498,"t":721,"event":"mousemove"},{"x":987,"y":491,"t":728,"event":"mousemove"},{"x":987,"y":489,"t":732,"event":"mousemove"},{"x":991,"y":481,"t":738,"event":"mousemove"},{"x":993,"y":476,"t":739,"event":"mousemove"},{"x":1012,"y":446,"t":756,"event":"mousemove"},{"x":1030,"y":418,"t":772,"event":"mousemove"},{"x":1063,"y":378,"t":788,"event":"mousemove"},{"x":1092,"y":340,"t":806,"event":"mousemove"},{"x":1104,"y":323,"t":821,"event":"mousemove"},{"x":1115,"y":307,"t":839,"event":"mousemove"},{"x":1129,"y":293,"t":856,"event":"mousemove"},{"x":1136,"y":288,"t":872,"event":"mousemove"},{"x":1144,"y":280,"t":889,"event":"mousemove"},{"x":1151,"y":273,"t":905,"event":"mousemove"},{"x":1156,"y":269,"t":922,"event":"mousemove"},{"x":1158,"y":268,"t":939,"event":"mousemove"},{"x":1159,"y":266,"t":956,"event":"mousemove"}],"mouse_tracking_targets":{},"correct":true},{"rt":906,"stimulus":"<p>How confident are you about your choice ?</p>","slider_start":50,"response":90,"trial_type":"html-slider-response","trial_index":19,"time_elapsed":26086,"internal_node_id":"0.0-6.0-2.0"},{"rt":null,"stimulus":"\n        <div id='jspsych-image' style='position: relative; width: min(80vw, 80vh); height: min(80vw, 80vh);'>\n                \n                <div style='position: absolute; top: 40%; left: 30%; bottom: 40%; right: 30%;'><h1 style='font-size: 60px; color: green;'>Correct!</h1></div>\n                \n                <div class='jspsych-image' id='jspsych-image-0' data-choice='0' style='top: 0;     left: 0;'><img style=\"width: 100%; height: 100%;\" src='../static/human_exp_images/task_size/00_2.png' class=''></img></div>\n                <div class='jspsych-image' id='jspsych-image-1' data-choice='1' style='top: 0;     right: 0;'><img style=\"width: 100%; height: 100%;\" src='../static/human_exp_images/task_size/00_3.png' class='correct-choice'></img></div>\n                <div class='jspsych-image' id='jspsych-image-2' data-choice='2' style='bottom: 0;  left: 0;'><img style=\"width: 100%; height: 100%;\" src='../static/human_exp_images/task_size/00_1.png' class=''></img></div>\n                <div class='jspsych-image' id='jspsych-image-3' data-choice='3' style='bottom: 0;  right: 0;'><img style=\"width: 100%; height: 100%;\" src='../static/human_exp_images/task_size/00_0.png' class=''></img></div>\n\n        </div>","response":null,"trial_type":"html-keyboard-response","trial_index":20,"time_elapsed":27590,"internal_node_id":"0.0-6.0-3.0"},{"rt":null,"trial_type":"image-click","trial_index":21,"time_elapsed":28233,"internal_node_id":"0.0-6.0-0.1"},{"rt":1032,"response":0,"all_choices":["../static/human_exp_images/task_size/01_3.png","../static/human_exp_images/task_size/01_2.png","../static/human_exp_images/task_size/01_1.png","../static/human_exp_images/task_size/01_0.png"],"task":"response","correct_response":0,"shuffled_array":[3,2,1,0],"catch_trial":false,"trial_type":"image-click","trial_index":22,"time_elapsed":29265,"internal_node_id":"0.0-6.0-1.1","mouse_tracking_data":[{"x":1048,"y":464,"t":0,"event":"mousemove"},{"x":1045,"y":464,"t":1,"event":"mousemove"},{"x":1040,"y":464,"t":16,"event":"mousemove"},{"x":1028,"y":464,"t":33,"event":"mousemove"},{"x":1016,"y":464,"t":49,"event":"mousemove"},{"x":1009,"y":464,"t":66,"event":"mousemove"},{"x":1000,"y":464,"t":84,"event":"mousemove"},{"x":997,"y":464,"t":99,"event":"mousemove"},{"x":988,"y":464,"t":116,"event":"mousemove"},{"x":980,"y":464,"t":133,"event":"mousemove"},{"x":971,"y":464,"t":150,"event":"mousemove"},{"x":966,"y":464,"t":166,"event":"mousemove"},{"x":963,"y":464,"t":183,"event":"mousemove"},{"x":961,"y":464,"t":603,"event":"mousemove"},{"x":958,"y":464,"t":612,"event":"mousemove"},{"x":954,"y":459,"t":621,"event":"mousemove"},{"x":953,"y":455,"t":626,"event":"mousemove"},{"x":947,"y":450,"t":629,"event":"mousemove"},{"x":945,"y":445,"t":630,"event":"mousemove"},{"x":936,"y":432,"t":645,"event":"mousemove"},{"x":915,"y":404,"t":663,"event":"mousemove"},{"x":897,"y":384,"t":679,"event":"mousemove"},{"x":884,"y":367,"t":697,"event":"mousemove"},{"x":875,"y":356,"t":713,"event":"mousemove"},{"x":866,"y":347,"t":729,"event":"mousemove"},{"x":860,"y":342,"t":747,"event":"mousemove"},{"x":851,"y":333,"t":763,"event":"mousemove"},{"x":842,"y":328,"t":780,"event":"mousemove"},{"x":836,"y":321,"t":796,"event":"mousemove"},{"x":829,"y":318,"t":813,"event":"mousemove"},{"x":825,"y":314,"t":829,"event":"mousemove"},{"x":820,"y":311,"t":847,"event":"mousemove"},{"x":817,"y":308,"t":863,"event":"mousemove"},{"x":808,"y":303,"t":879,"event":"mousemove"},{"x":805,"y":299,"t":897,"event":"mousemove"},{"x":801,"y":296,"t":913,"event":"mousemove"},{"x":800,"y":294,"t":931,"event":"mousemove"},{"x":798,"y":292,"t":947,"event":"mousemove"},{"x":796,"y":291,"t":964,"event":"mousemove"},{"x":795,"y":289,"t":979,"event":"mousemove"}],"mouse_tracking_targets":{},"correct":true},{"rt":1231,"stimulus":"<p>How confident are you about your choice ?</p>","slider_start":50,"response":53,"trial_type":"html-slider-response","trial_index":23,"time_elapsed":30498,"internal_node_id":"0.0-6.0-2.1"},{"rt":null,"stimulus":"\n        <div id='jspsych-image' style='position: relative; width: min(80vw, 80vh); height: min(80vw, 80vh);'>\n                \n                <div style='position: absolute; top: 40%; left: 30%; bottom: 40%; right: 30%;'><h1 style='font-size: 60px; color: green;'>Correct!</h1></div>\n                \n                <div class='jspsych-image' id='jspsych-image-0' data-choice='0' style='top: 0;     left: 0;'><img style=\"width: 100%; height: 100%;\" src='../static/human_exp_images/task_size/01_3.png' class='correct-choice'></img></div>\n                <div class='jspsych-image' id='jspsych-image-1' data-choice='1' style='top: 0;     right: 0;'><img style=\"width: 100%; height: 100%;\" src='../static/human_exp_images/task_size/01_2.png' class=''></img></div>\n                <div class='jspsych-image' id='jspsych-image-2' data-choice='2' style='bottom: 0;  left: 0;'><img style=\"width: 100%; height: 100%;\" src='../static/human_exp_images/task_size/01_1.png' class=''></img></div>\n                <div class='jspsych-image' id='jspsych-image-3' data-choice='3' style='bottom: 0;  right: 0;'><img style=\"width: 100%; height: 100%;\" src='../static/human_exp_images/task_size/01_0.png' class=''></img></div>\n\n        </div>","response":null,"trial_type":"html-keyboard-response","trial_index":24,"time_elapsed":32001,"internal_node_id":"0.0-6.0-3.1"},{"rt":null,"trial_type":"image-click","trial_index":25,"time_elapsed":32003,"internal_node_id":"0.0-6.0-0.2"},{"rt":1260,"response":3,"all_choices":["../static/human_exp_images/task_size/02_0.png","../static/human_exp_images/task_size/02_2.png","../static/human_exp_images/task_size/02_1.png","../static/human_exp_images/task_size/02_3.png"],"task":"response","correct_response":3,"shuffled_array":[0,2,1,3],"catch_trial":false,"trial_type":"image-click","trial_index":26,"time_elapsed":33265,"internal_node_id":"0.0-6.0-1.2","mouse_tracking_data":[{"x":981,"y":470,"t":887,"event":"mousemove"},{"x":982,"y":470,"t":888,"event":"mousemove"},{"x":986,"y":470,"t":905,"event":"mousemove"},{"x":993,"y":472,"t":922,"event":"mousemove"},{"x":1012,"y":491,"t":938,"event":"mousemove"},{"x":1043,"y":520,"t":955,"event":"mousemove"},{"x":1081,"y":559,"t":971,"event":"mousemove"},{"x":1111,"y":592,"t":988,"event":"mousemove"},{"x":1132,"y":621,"t":1005,"event":"mousemove"},{"x":1136,"y":629,"t":1022,"event":"mousemove"},{"x":1141,"y":636,"t":1039,"event":"mousemove"},{"x":1143,"y":641,"t":1055,"event":"mousemove"},{"x":1143,"y":643,"t":1072,"event":"mousemove"}],"mouse_tracking_targets":{},"correct":true},{"rt":1607,"stimulus":"<p>How confident are you about your choice ?</p>","slider_start":50,"response":26,"trial_type":"html-slider-response","trial_index":27,"time_elapsed":34874,"internal_node_id":"0.0-6.0-2.2"},{"rt":null,"stimulus":"\n        <div id='jspsych-image' style='position: relative; width: min(80vw, 80vh); height: min(80vw, 80vh);'>\n                \n                <div style='position: absolute; top: 40%; left: 30%; bottom: 40%; right: 30%;'><h1 style='font-size: 60px; color: green;'>Correct!</h1></div>\n                \n                <div class='jspsych-image' id='jspsych-image-0' data-choice='0' style='top: 0;     left: 0;'><img style=\"width: 100%; height: 100%;\" src='../static/human_exp_images/task_size/02_0.png' class=''></img></div>\n                <div class='jspsych-image' id='jspsych-image-1' data-choice='1' style='top: 0;     right: 0;'><img style=\"width: 100%; height: 100%;\" src='../static/human_exp_images/task_size/02_2.png' class=''></img></div>\n                <div class='jspsych-image' id='jspsych-image-2' data-choice='2' style='bottom: 0;  left: 0;'><img style=\"width: 100%; height: 100%;\" src='../static/human_exp_images/task_size/02_1.png' class=''></img></div>\n                <div class='jspsych-image' id='jspsych-image-3' data-choice='3' style='bottom: 0;  right: 0;'><img style=\"width: 100%; height: 100%;\" src='../static/human_exp_images/task_size/02_3.png' class='correct-choice'></img></div>\n\n        </div>","response":null,"trial_type":"html-keyboard-response","trial_index":28,"time_elapsed":36379,"internal_node_id":"0.0-6.0-3.2"},{"rt":null,"trial_type":"image-click","trial_index":29,"time_elapsed":36393,"internal_node_id":"0.0-6.0-0.3"},{"rt":1604,"response":3,"all_choices":["../static/human_exp_images/task_size/03_1.png","../static/human_exp_images/task_size/03_0.png","../static/human_exp_images/task_size/03_2.png","../static/human_exp_images/task_size/03_3.png"],"task":"response","correct_response":3,"shuffled_array":[1,0,2,3],"catch_trial":false,"trial_type":"image-click","trial_index":30,"time_elapsed":38000,"internal_node_id":"0.0-6.0-1.3","mouse_tracking_data":[{"x":990,"y":494,"t":14,"event":"mousemove"},{"x":990,"y":492,"t":31,"event":"mousemove"},{"x":988,"y":490,"t":48,"event":"mousemove"},{"x":988,"y":489,"t":65,"event":"mousemove"},{"x":987,"y":489,"t":80,"event":"mousemove"},{"x":987,"y":487,"t":132,"event":"mousemove"},{"x":985,"y":487,"t":202,"event":"mousemove"},{"x":988,"y":487,"t":1268,"event":"mousemove"},{"x":990,"y":487,"t":1272,"event":"mousemove"},{"x":993,"y":489,"t":1277,"event":"mousemove"},{"x":995,"y":491,"t":1278,"event":"mousemove"},{"x":1002,"y":498,"t":1294,"event":"mousemove"},{"x":1014,"y":513,"t":1312,"event":"mousemove"},{"x":1034,"y":535,"t":1328,"event":"mousemove"},{"x":1052,"y":562,"t":1344,"event":"mousemove"},{"x":1068,"y":588,"t":1361,"event":"mousemove"},{"x":1079,"y":606,"t":1378,"event":"mousemove"},{"x":1086,"y":618,"t":1395,"event":"mousemove"},{"x":1089,"y":623,"t":1411,"event":"mousemove"},{"x":1093,"y":627,"t":1428,"event":"mousemove"},{"x":1093,"y":628,"t":1450,"event":"mousemove"},{"x":1096,"y":630,"t":1462,"event":"mousemove"},{"x":1100,"y":635,"t":1477,"event":"mousemove"},{"x":1101,"y":640,"t":1494,"event":"mousemove"},{"x":1103,"y":644,"t":1511,"event":"mousemove"}],"mouse_tracking_targets":{},"correct":true},{"rt":991,"stimulus":"<p>How confident are you about your choice ?</p>","slider_start":50,"response":79,"trial_type":"html-slider-response","trial_index":31,"time_elapsed":38993,"internal_node_id":"0.0-6.0-2.3"},{"rt":null,"stimulus":"\n        <div id='jspsych-image' style='position: relative; width: min(80vw, 80vh); height: min(80vw, 80vh);'>\n                \n                <div style='position: absolute; top: 40%; left: 30%; bottom: 40%; right: 30%;'><h1 style='font-size: 60px; color: green;'>Correct!</h1></div>\n                \n                <div class='jspsych-image' id='jspsych-image-0' data-choice='0' style='top: 0;     left: 0;'><img style=\"width: 100%; height: 100%;\" src='../static/human_exp_images/task_size/03_1.png' class=''></img></div>\n                <div class='jspsych-image' id='jspsych-image-1' data-choice='1' style='top: 0;     right: 0;'><img style=\"width: 100%; height: 100%;\" src='../static/human_exp_images/task_size/03_0.png' class=''></img></div>\n                <div class='jspsych-image' id='jspsych-image-2' data-choice='2' style='bottom: 0;  left: 0;'><img style=\"width: 100%; height: 100%;\" src='../static/human_exp_images/task_size/03_2.png' class=''></img></div>\n                <div class='jspsych-image' id='jspsych-image-3' data-choice='3' style='bottom: 0;  right: 0;'><img style=\"width: 100%; height: 100%;\" src='../static/human_exp_images/task_size/03_3.png' class='correct-choice'></img></div>\n\n        </div>","response":null,"trial_type":"html-keyboard-response","trial_index":32,"time_elapsed":40497,"internal_node_id":"0.0-6.0-3.3"},{"rt":null,"trial_type":"image-click","trial_index":33,"time_elapsed":40498,"internal_node_id":"0.0-6.0-0.4"},{"rt":1077,"response":3,"all_choices":["../static/human_exp_images/task_size/04_1.png","../static/human_exp_images/task_size/04_2.png","../static/human_exp_images/task_size/04_0.png","../static/human_exp_images/task_size/04_3.png"],"task":"response","correct_response":3,"shuffled_array":[1,2,0,3],"catch_trial":false,"trial_type":"image-click","trial_index":34,"time_elapsed":41576,"internal_node_id":"0.0-6.0-1.4","mouse_tracking_data":[{"x":1017,"y":543,"t":60,"event":"mousemove"},{"x":1017,"y":541,"t":68,"event":"mousemove"},{"x":1017,"y":539,"t":150,"event":"mousemove"},{"x":1017,"y":538,"t":356,"event":"mousemove"},{"x":1017,"y":536,"t":358,"event":"mousemove"},{"x":1017,"y":534,"t":364,"event":"mousemove"},{"x":1017,"y":533,"t":368,"event":"mousemove"},{"x":1017,"y":529,"t":372,"event":"mousemove"},{"x":1017,"y":526,"t":373,"event":"mousemove"},{"x":1016,"y":522,"t":382,"event":"mousemove"},{"x":1014,"y":519,"t":384,"event":"mousemove"},{"x":1010,"y":516,"t":392,"event":"mousemove"},{"x":1010,"y":514,"t":394,"event":"mousemove"},{"x":1007,"y":509,"t":402,"event":"mousemove"},{"x":1005,"y":507,"t":405,"event":"mousemove"},{"x":1004,"y":502,"t":411,"event":"mousemove"},{"x":1002,"y":500,"t":415,"event":"mousemove"},{"x":1000,"y":497,"t":421,"event":"mousemove"},{"x":998,"y":495,"t":422,"event":"mousemove"},{"x":997,"y":490,"t":437,"event":"mousemove"},{"x":992,"y":485,"t":454,"event":"mousemove"},{"x":990,"y":483,"t":471,"event":"mousemove"},{"x":990,"y":481,"t":488,"event":"mousemove"},{"x":992,"y":481,"t":698,"event":"mousemove"},{"x":995,"y":481,"t":702,"event":"mousemove"},{"x":997,"y":481,"t":708,"event":"mousemove"},{"x":998,"y":481,"t":713,"event":"mousemove"},{"x":1000,"y":481,"t":715,"event":"mousemove"},{"x":1005,"y":480,"t":731,"event":"mousemove"},{"x":1012,"y":480,"t":748,"event":"mousemove"},{"x":1017,"y":480,"t":764,"event":"mousemove"},{"x":1034,"y":480,"t":781,"event":"mousemove"},{"x":1054,"y":487,"t":798,"event":"mousemove"},{"x":1076,"y":509,"t":814,"event":"mousemove"},{"x":1090,"y":523,"t":832,"event":"mousemove"},{"x":1096,"y":529,"t":848,"event":"mousemove"},{"x":1106,"y":543,"t":865,"event":"mousemove"},{"x":1117,"y":563,"t":882,"event":"mousemove"},{"x":1124,"y":579,"t":899,"event":"mousemove"},{"x":1130,"y":589,"t":915,"event":"mousemove"},{"x":1130,"y":593,"t":932,"event":"mousemove"},{"x":1130,"y":595,"t":948,"event":"mousemove"}],"mouse_tracking_targets":{},"correct":true},{"rt":1754,"stimulus":"<p>How confident are you about your choice ?</p>","slider_start":50,"response":21,"trial_type":"html-slider-response","trial_index":35,"time_elapsed":43332,"internal_node_id":"0.0-6.0-2.4"},{"rt":null,"stimulus":"\n        <div id='jspsych-image' style='position: relative; width: min(80vw, 80vh); height: min(80vw, 80vh);'>\n                \n                <div style='position: absolute; top: 40%; left: 30%; bottom: 40%; right: 30%;'><h1 style='font-size: 60px; color: green;'>Correct!</h1></div>\n                \n                <div class='jspsych-image' id='jspsych-image-0' data-choice='0' style='top: 0;     left: 0;'><img style=\"width: 100%; height: 100%;\" src='../static/human_exp_images/task_size/04_1.png' class=''></img></div>\n                <div class='jspsych-image' id='jspsych-image-1' data-choice='1' style='top: 0;     right: 0;'><img style=\"width: 100%; height: 100%;\" src='../static/human_exp_images/task_size/04_2.png' class=''></img></div>\n                <div class='jspsych-image' id='jspsych-image-2' data-choice='2' style='bottom: 0;  left: 0;'><img style=\"width: 100%; height: 100%;\" src='../static/human_exp_images/task_size/04_0.png' class=''></img></div>\n                <div class='jspsych-image' id='jspsych-image-3' data-choice='3' style='bottom: 0;  right: 0;'><img style=\"width: 100%; height: 100%;\" src='../static/human_exp_images/task_size/04_3.png' class='correct-choice'></img></div>\n\n        </div>","response":null,"trial_type":"html-keyboard-response","trial_index":36,"time_elapsed":44835,"internal_node_id":"0.0-6.0-3.4"}]