[{"rt":724,"stimulus":"<p style='font-size: 40px'>Welcome to the experiment.</p><p style='font-size: 30px'>Press any key to begin.</p>","response":" ","trial_type":"html-keyboard-response","trial_index":0,"time_elapsed":726,"internal_node_id":"0.0-0.0"},{"rt":831,"stimulus":"\n    <p>This experiment aims to measure humans' visual reasoning skills. You will go through a practice session consisting of 3 trials, followed by 6 blocks of 21 trials.</p>\n    <p>When presented with an empty square in the middle of the screen, place your cursor on it to start the trial.</p>\n    <p>4 images will appear on the screen. 3 out of 4 images were generated with a certain rule while one image (the odd one out) does not respect this rule.</p>\n    <p>Select the odd one out by clicking on the image.</p>\n    <p>Following your choice, you will be asked to rate how confident you were about your choice on a scale from 0 to 100. Then, you will receive feedback on the trial.</p>\n    <p>The 21 trials of a block use the same rule and each block uses a different rule. At the end of each block, you will asked to describe the rule before starting a new block.</p>\n    <p>Please do not take breaks only in between blocks not in between trials.</p>\n    <p>The following 3 trials will allow you to get familiar with the odd-one-out task. The experiment starts after this practice session.</p>\n    \n    <p>Press any button to continue</p>\n    <div style='margin: auto; position: relative; width: 400px; height: 400px;'>\n        <div style='position: absolute; top: 0;     left: 0; '><img src='../static/img/square.png'></img></div>\n        <div style='position: absolute; top: 0;     right: 0;'><img src='../static/img/square.png'></img></div>\n        <div style='position: absolute; bottom: 0;  left: 0; '><img src='../static/img/square.png'></img></div>\n        <div style='position: absolute; bottom: 0;  right: 0;'><img src='../static/img/square.png'></img></div>\n    </div>\n","response":" ","trial_type":"html-keyboard-response","trial_index":1,"time_elapsed":1560,"internal_node_id":"0.0-1.0"},{"rt":42405,"response":{"P0_Q0":null,"Instruction Check":["There are 6 blocks of 21 trials.","The tasks consists of choosing one image that's different from the other three."]},"accuracy":[],"trial_type":"survey","trial_index":2,"time_elapsed":45996,"internal_node_id":"0.0-2.0"},{"success":true,"timeout":false,"failed_images":[],"failed_audio":[],"failed_video":[],"trial_type":"preload","trial_index":3,"time_elapsed":46036,"internal_node_id":"0.0-3.0"},{"rt":null,"trial_type":"image-click","trial_index":4,"time_elapsed":47144,"internal_node_id":"0.0-4.0-0.0"},{"rt":3674,"response":0,"all_choices":["../static/human_exp_images/practice_img/00_3.png","../static/human_exp_images/practice_img/00_2.png","../static/human_exp_images/practice_img/00_0.png","../static/human_exp_images/practice_img/00_1.png"],"task":"response","correct_response":0,"shuffled_array":[3,2,0,1],"catch_trial":false,"trial_type":"image-click","trial_index":5,"time_elapsed":50822,"internal_node_id":"0.0-4.0-1.0","mouse_tracking_data":[{"x":959,"y":530,"t":1,"event":"mousemove"},{"x":952,"y":504,"t":14,"event":"mousemove"},{"x":948,"y":483,"t":29,"event":"mousemove"},{"x":946,"y":469,"t":46,"event":"mousemove"},{"x":945,"y":461,"t":62,"event":"mousemove"},{"x":943,"y":455,"t":80,"event":"mousemove"},{"x":943,"y":454,"t":97,"event":"mousemove"},{"x":943,"y":452,"t":133,"event":"mousemove"},{"x":943,"y":450,"t":216,"event":"mousemove"},{"x":943,"y":449,"t":2220,"event":"mousemove"},{"x":942,"y":449,"t":2623,"event":"mousemove"},{"x":940,"y":449,"t":2640,"event":"mousemove"},{"x":938,"y":449,"t":2650,"event":"mousemove"},{"x":935,"y":449,"t":2657,"event":"mousemove"},{"x":935,"y":447,"t":2658,"event":"mousemove"},{"x":930,"y":445,"t":2667,"event":"mousemove"},{"x":926,"y":445,"t":2669,"event":"mousemove"},{"x":919,"y":444,"t":2676,"event":"mousemove"},{"x":915,"y":442,"t":2680,"event":"mousemove"},{"x":907,"y":438,"t":2685,"event":"mousemove"},{"x":903,"y":436,"t":2690,"event":"mousemove"},{"x":895,"y":432,"t":2695,"event":"mousemove"},{"x":891,"y":429,"t":2696,"event":"mousemove"},{"x":878,"y":425,"t":2712,"event":"mousemove"},{"x":862,"y":415,"t":2729,"event":"mousemove"},{"x":850,"y":405,"t":2746,"event":"mousemove"},{"x":836,"y":398,"t":2763,"event":"mousemove"},{"x":826,"y":389,"t":2779,"event":"mousemove"},{"x":819,"y":381,"t":2796,"event":"mousemove"},{"x":814,"y":375,"t":2813,"event":"mousemove"},{"x":807,"y":369,"t":2829,"event":"mousemove"},{"x":803,"y":362,"t":2846,"event":"mousemove"},{"x":800,"y":355,"t":2862,"event":"mousemove"},{"x":797,"y":348,"t":2879,"event":"mousemove"},{"x":793,"y":345,"t":2896,"event":"mousemove"},{"x":792,"y":341,"t":2912,"event":"mousemove"},{"x":786,"y":333,"t":2930,"event":"mousemove"},{"x":780,"y":328,"t":2946,"event":"mousemove"},{"x":774,"y":321,"t":2963,"event":"mousemove"},{"x":771,"y":317,"t":2979,"event":"mousemove"},{"x":768,"y":316,"t":2996,"event":"mousemove"},{"x":766,"y":312,"t":3013,"event":"mousemove"},{"x":761,"y":307,"t":3029,"event":"mousemove"},{"x":748,"y":294,"t":3047,"event":"mousemove"},{"x":734,"y":279,"t":3062,"event":"mousemove"},{"x":722,"y":265,"t":3080,"event":"mousemove"},{"x":715,"y":258,"t":3095,"event":"mousemove"},{"x":710,"y":250,"t":3113,"event":"mousemove"},{"x":709,"y":245,"t":3129,"event":"mousemove"},{"x":709,"y":246,"t":3382,"event":"mousemove"}],"mouse_tracking_targets":{},"correct":true},{"rt":3061,"stimulus":"<p>How confident are you about your choice ? (click on the bar)</p>","slider_start":50,"response":92,"trial_type":"html-slider-response","trial_index":6,"time_elapsed":53886,"internal_node_id":"0.0-4.0-2.0"},{"rt":null,"stimulus":"\n        <div id='jspsych-image' style='position: relative; width: min(80vw, 80vh); height: min(80vw, 80vh);'>\n                \n                <div style='position: absolute; top: 40%; left: 30%; bottom: 40%; right: 30%;'><h1 style='font-size: 60px; color: green;'>Correct!</h1></div>\n                \n                <div class='jspsych-image' id='jspsych-image-0' data-choice='0' style='top: 0;     left: 0;'><img style=\"width: 100%; height: 100%;\" src='../static/human_exp_images/practice_img/00_3.png' class='correct-choice'></img></div>\n                <div class='jspsych-image' id='jspsych-image-1' data-choice='1' style='top: 0;     right: 0;'><img style=\"width: 100%; height: 100%;\" src='../static/human_exp_images/practice_img/00_2.png' class=''></img></div>\n                <div class='jspsych-image' id='jspsych-image-2' data-choice='2' style='bottom: 0;  left: 0;'><img style=\"width: 100%; height: 100%;\" src='../static/human_exp_images/practice_img/00_0.png' class=''></img></div>\n                <div class='jspsych-image' id='jspsych-image-3' data-choice='3' style='bottom: 0;  right: 0;'><img style=\"width: 100%; height: 100%;\" src='../static/human_exp_images/practice_img/00_1.png' class=''></img></div>\n\n        </div>","response":null,"trial_type":"html-keyboard-response","trial_index":7,"time_elapsed":55390,"internal_node_id":"0.0-4.0-3.0"},{"rt":null,"trial_type":"image-click","trial_index":8,"time_elapsed":55936,"internal_node_id":"0.0-4.0-0.1"},{"rt":1527,"response":1,"all_choices":["../static/human_exp_images/practice_img/01_2.png","../static/human_exp_images/practice_img/01_3.png","../static/human_exp_images/practice_img/01_1.png","../static/human_exp_images/practice_img/01_0.png"],"task":"response","correct_response":1,"shuffled_array":[2,3,1,0],"catch_trial":false,"trial_type":"image-click","trial_index":9,"time_elapsed":57463,"internal_node_id":"0.0-4.0-1.1","mouse_tracking_data":[{"x":1042,"y":457,"t":1,"event":"mousemove"},{"x":1030,"y":457,"t":16,"event":"mousemove"},{"x":1021,"y":457,"t":33,"event":"mousemove"},{"x":1011,"y":457,"t":50,"event":"mousemove"},{"x":1013,"y":457,"t":988,"event":"mousemove"},{"x":1015,"y":457,"t":990,"event":"mousemove"},{"x":1017,"y":457,"t":1007,"event":"mousemove"},{"x":1023,"y":457,"t":1024,"event":"mousemove"},{"x":1029,"y":457,"t":1040,"event":"mousemove"},{"x":1041,"y":455,"t":1057,"event":"mousemove"},{"x":1049,"y":443,"t":1073,"event":"mousemove"},{"x":1058,"y":432,"t":1090,"event":"mousemove"},{"x":1065,"y":426,"t":1106,"event":"mousemove"},{"x":1070,"y":419,"t":1123,"event":"mousemove"},{"x":1075,"y":414,"t":1141,"event":"mousemove"},{"x":1082,"y":405,"t":1157,"event":"mousemove"},{"x":1090,"y":398,"t":1174,"event":"mousemove"},{"x":1099,"y":388,"t":1190,"event":"mousemove"},{"x":1106,"y":381,"t":1208,"event":"mousemove"},{"x":1112,"y":374,"t":1223,"event":"mousemove"},{"x":1127,"y":364,"t":1241,"event":"mousemove"},{"x":1138,"y":352,"t":1258,"event":"mousemove"},{"x":1147,"y":342,"t":1274,"event":"mousemove"},{"x":1152,"y":334,"t":1291,"event":"mousemove"},{"x":1159,"y":325,"t":1307,"event":"mousemove"},{"x":1164,"y":318,"t":1324,"event":"mousemove"},{"x":1167,"y":315,"t":1340,"event":"mousemove"},{"x":1171,"y":310,"t":1357,"event":"mousemove"},{"x":1172,"y":308,"t":1375,"event":"mousemove"},{"x":1174,"y":306,"t":1390,"event":"mousemove"},{"x":1174,"y":305,"t":1408,"event":"mousemove"}],"mouse_tracking_targets":{},"correct":true},{"rt":1301,"stimulus":"<p>How confident are you about your choice ? (click on the bar)</p>","slider_start":50,"response":99,"trial_type":"html-slider-response","trial_index":10,"time_elapsed":58766,"internal_node_id":"0.0-4.0-2.1"},{"rt":null,"stimulus":"\n        <div id='jspsych-image' style='position: relative; width: min(80vw, 80vh); height: min(80vw, 80vh);'>\n                \n                <div style='position: absolute; top: 40%; left: 30%; bottom: 40%; right: 30%;'><h1 style='font-size: 60px; color: green;'>Correct!</h1></div>\n                \n                <div class='jspsych-image' id='jspsych-image-0' data-choice='0' style='top: 0;     left: 0;'><img style=\"width: 100%; height: 100%;\" src='../static/human_exp_images/practice_img/01_2.png' class=''></img></div>\n                <div class='jspsych-image' id='jspsych-image-1' data-choice='1' style='top: 0;     right: 0;'><img style=\"width: 100%; height: 100%;\" src='../static/human_exp_images/practice_img/01_3.png' class='correct-choice'></img></div>\n                <div class='jspsych-image' id='jspsych-image-2' data-choice='2' style='bottom: 0;  left: 0;'><img style=\"width: 100%; height: 100%;\" src='../static/human_exp_images/practice_img/01_1.png' class=''></img></div>\n                <div class='jspsych-image' id='jspsych-image-3' data-choice='3' style='bottom: 0;  right: 0;'><img style=\"width: 100%; height: 100%;\" src='../static/human_exp_images/practice_img/01_0.png' class=''></img></div>\n\n        </div>","response":null,"trial_type":"html-keyboard-response","trial_index":11,"time_elapsed":60270,"internal_node_id":"0.0-4.0-3.1"},{"rt":null,"trial_type":"image-click","trial_index":12,"time_elapsed":60666,"internal_node_id":"0.0-4.0-0.2"},{"rt":871,"response":0,"all_choices":["../static/human_exp_images/practice_img/02_3.png","../static/human_exp_images/practice_img/02_2.png","../static/human_exp_images/practice_img/02_0.png","../static/human_exp_images/practice_img/02_1.png"],"task":"response","correct_response":0,"shuffled_array":[3,2,0,1],"catch_trial":false,"trial_type":"image-click","trial_index":13,"time_elapsed":61538,"internal_node_id":"0.0-4.0-1.2","mouse_tracking_data":[{"x":1042,"y":426,"t":1,"event":"mousemove"},{"x":1035,"y":425,"t":16,"event":"mousemove"},{"x":1026,"y":425,"t":33,"event":"mousemove"},{"x":1025,"y":425,"t":49,"event":"mousemove"},{"x":1021,"y":425,"t":67,"event":"mousemove"},{"x":1018,"y":425,"t":82,"event":"mousemove"},{"x":1013,"y":425,"t":100,"event":"mousemove"},{"x":1011,"y":425,"t":116,"event":"mousemove"},{"x":1009,"y":425,"t":133,"event":"mousemove"},{"x":1008,"y":425,"t":154,"event":"mousemove"},{"x":1006,"y":425,"t":216,"event":"mousemove"},{"x":1004,"y":425,"t":233,"event":"mousemove"},{"x":1001,"y":425,"t":251,"event":"mousemove"},{"x":999,"y":425,"t":267,"event":"mousemove"},{"x":997,"y":425,"t":284,"event":"mousemove"},{"x":996,"y":425,"t":301,"event":"mousemove"},{"x":994,"y":425,"t":549,"event":"mousemove"},{"x":992,"y":425,"t":561,"event":"mousemove"},{"x":989,"y":425,"t":567,"event":"mousemove"},{"x":985,"y":425,"t":571,"event":"mousemove"},{"x":980,"y":425,"t":576,"event":"mousemove"},{"x":977,"y":425,"t":577,"event":"mousemove"},{"x":964,"y":425,"t":592,"event":"mousemove"},{"x":921,"y":407,"t":610,"event":"mousemove"},{"x":861,"y":381,"t":625,"event":"mousemove"},{"x":800,"y":351,"t":643,"event":"mousemove"},{"x":774,"y":340,"t":659,"event":"mousemove"},{"x":758,"y":330,"t":677,"event":"mousemove"},{"x":753,"y":327,"t":692,"event":"mousemove"},{"x":746,"y":322,"t":710,"event":"mousemove"},{"x":739,"y":315,"t":726,"event":"mousemove"},{"x":734,"y":310,"t":743,"event":"mousemove"},{"x":730,"y":305,"t":759,"event":"mousemove"},{"x":729,"y":303,"t":776,"event":"mousemove"}],"mouse_tracking_targets":{},"correct":true},{"rt":2796,"stimulus":"<p>How confident are you about your choice ? (click on the bar)</p>","slider_start":50,"response":1,"trial_type":"html-slider-response","trial_index":14,"time_elapsed":64335,"internal_node_id":"0.0-4.0-2.2"},{"rt":null,"stimulus":"\n        <div id='jspsych-image' style='position: relative; width: min(80vw, 80vh); height: min(80vw, 80vh);'>\n                \n                <div style='position: absolute; top: 40%; left: 30%; bottom: 40%; right: 30%;'><h1 style='font-size: 60px; color: green;'>Correct!</h1></div>\n                \n                <div class='jspsych-image' id='jspsych-image-0' data-choice='0' style='top: 0;     left: 0;'><img style=\"width: 100%; height: 100%;\" src='../static/human_exp_images/practice_img/02_3.png' class='correct-choice'></img></div>\n                <div class='jspsych-image' id='jspsych-image-1' data-choice='1' style='top: 0;     right: 0;'><img style=\"width: 100%; height: 100%;\" src='../static/human_exp_images/practice_img/02_2.png' class=''></img></div>\n                <div class='jspsych-image' id='jspsych-image-2' data-choice='2' style='bottom: 0;  left: 0;'><img style=\"width: 100%; height: 100%;\" src='../static/human_exp_images/practice_img/02_0.png' class=''></img></div>\n                <div class='jspsych-image' id='jspsych-image-3' data-choice='3' style='bottom: 0;  right: 0;'><img style=\"width: 100%; height: 100%;\" src='../static/human_exp_images/practice_img/02_1.png' class=''></img></div>\n\n        </div>","response":null,"trial_type":"html-keyboard-response","trial_index":15,"time_elapsed":65839,"internal_node_id":"0.0-4.0-3.2"},{"rt":1143,"stimulus":"<p style='font-size: 40px'>The practice session is over. The experiment begin now!</p> \n                <p>Please take pauses on only at the \"new rule\" pages.</p> \n                <p>Press any key to begin.</p>","response":" ","trial_type":"html-keyboard-response","trial_index":16,"time_elapsed":66987,"internal_node_id":"0.0-5.0"},{"success":true,"timeout":false,"failed_images":[],"failed_audio":[],"failed_video":[],"trial_type":"preload","trial_index":17,"time_elapsed":67213,"internal_node_id":"0.0-6.0"},{"rt":52123,"stimulus":"<h1 style='font-size: 60px'>New Rule!</h1> <p>Press any key to begin.</p>","response":" ","trial_type":"html-keyboard-response","trial_index":18,"time_elapsed":119337,"internal_node_id":"0.0-7.0"},{"rt":null,"trial_type":"image-click","trial_index":19,"time_elapsed":119983,"internal_node_id":"0.0-8.0-0.0"},{"rt":1204,"response":1,"all_choices":["../static/human_exp_images/task_size/00_1.png","../static/human_exp_images/task_size/00_3.png","../static/human_exp_images/task_size/00_0.png","../static/human_exp_images/task_size/00_2.png"],"task":"response","correct_response":1,"shuffled_array":[1,3,0,2],"catch_trial":false,"trial_type":"image-click","trial_index":20,"time_elapsed":121188,"internal_node_id":"0.0-8.0-1.0","mouse_tracking_data":[{"x":1008,"y":537,"t":0,"event":"mousemove"},{"x":993,"y":524,"t":15,"event":"mousemove"},{"x":983,"y":515,"t":32,"event":"mousemove"},{"x":978,"y":510,"t":49,"event":"mousemove"},{"x":974,"y":507,"t":66,"event":"mousemove"},{"x":969,"y":502,"t":82,"event":"mousemove"},{"x":964,"y":498,"t":99,"event":"mousemove"},{"x":964,"y":496,"t":116,"event":"mousemove"},{"x":964,"y":495,"t":184,"event":"mousemove"},{"x":964,"y":493,"t":623,"event":"mousemove"},{"x":964,"y":490,"t":632,"event":"mousemove"},{"x":964,"y":483,"t":640,"event":"mousemove"},{"x":964,"y":481,"t":644,"event":"mousemove"},{"x":964,"y":474,"t":651,"event":"mousemove"},{"x":964,"y":471,"t":654,"event":"mousemove"},{"x":973,"y":458,"t":659,"event":"mousemove"},{"x":981,"y":450,"t":664,"event":"mousemove"},{"x":1008,"y":423,"t":669,"event":"mousemove"},{"x":1027,"y":398,"t":670,"event":"mousemove"},{"x":1078,"y":347,"t":677,"event":"mousemove"},{"x":1098,"y":327,"t":680,"event":"mousemove"},{"x":1134,"y":286,"t":687,"event":"mousemove"},{"x":1194,"y":230,"t":697,"event":"mousemove"},{"x":1253,"y":162,"t":713,"event":"mousemove"},{"x":1318,"y":92,"t":730,"event":"mousemove"},{"x":1349,"y":67,"t":747,"event":"mousemove"},{"x":1347,"y":67,"t":877,"event":"mousemove"},{"x":1345,"y":67,"t":893,"event":"mousemove"}],"mouse_tracking_targets":{},"correct":true},{"rt":2163,"stimulus":"<p>How confident are you about your choice ? (click on the bar)</p>","slider_start":50,"response":90,"trial_type":"html-slider-response","trial_index":21,"time_elapsed":123354,"internal_node_id":"0.0-8.0-2.0"},{"rt":null,"stimulus":"\n        <div id='jspsych-image' style='position: relative; width: min(80vw, 80vh); height: min(80vw, 80vh);'>\n                \n                <div style='position: absolute; top: 40%; left: 30%; bottom: 40%; right: 30%;'><h1 style='font-size: 60px; color: green;'>Correct!</h1></div>\n                \n                <div class='jspsych-image' id='jspsych-image-0' data-choice='0' style='top: 0;     left: 0;'><img style=\"width: 100%; height: 100%;\" src='../static/human_exp_images/task_size/00_1.png' class=''></img></div>\n                <div class='jspsych-image' id='jspsych-image-1' data-choice='1' style='top: 0;     right: 0;'><img style=\"width: 100%; height: 100%;\" src='../static/human_exp_images/task_size/00_3.png' class='correct-choice'></img></div>\n                <div class='jspsych-image' id='jspsych-image-2' data-choice='2' style='bottom: 0;  left: 0;'><img style=\"width: 100%; height: 100%;\" src='../static/human_exp_images/task_size/00_0.png' class=''></img></div>\n                <div class='jspsych-image' id='jspsych-image-3' data-choice='3' style='bottom: 0;  right: 0;'><img style=\"width: 100%; height: 100%;\" src='../static/human_exp_images/task_size/00_2.png' class=''></img></div>\n\n        </div>","response":null,"trial_type":"html-keyboard-response","trial_index":22,"time_elapsed":124858,"internal_node_id":"0.0-8.0-3.0"},{"rt":null,"trial_type":"image-click","trial_index":23,"time_elapsed":125542,"internal_node_id":"0.0-8.0-0.1"},{"rt":1054,"response":1,"all_choices":["../static/human_exp_images/task_size/01_0.png","../static/human_exp_images/task_size/01_3.png","../static/human_exp_images/task_size/01_2.png","../static/human_exp_images/task_size/01_1.png"],"task":"response","correct_response":1,"shuffled_array":[0,3,2,1],"catch_trial":false,"trial_type":"image-click","trial_index":24,"time_elapsed":126600,"internal_node_id":"0.0-8.0-1.1","mouse_tracking_data":[{"x":1026,"y":446,"t":1,"event":"mousemove"},{"x":1004,"y":446,"t":13,"event":"mousemove"},{"x":990,"y":446,"t":30,"event":"mousemove"},{"x":986,"y":446,"t":46,"event":"mousemove"},{"x":985,"y":446,"t":63,"event":"mousemove"},{"x":986,"y":446,"t":144,"event":"mousemove"},{"x":990,"y":446,"t":148,"event":"mousemove"},{"x":993,"y":446,"t":163,"event":"mousemove"},{"x":995,"y":446,"t":180,"event":"mousemove"},{"x":997,"y":446,"t":198,"event":"mousemove"},{"x":998,"y":446,"t":213,"event":"mousemove"},{"x":1000,"y":446,"t":231,"event":"mousemove"},{"x":1007,"y":446,"t":246,"event":"mousemove"},{"x":1012,"y":446,"t":263,"event":"mousemove"},{"x":1021,"y":444,"t":280,"event":"mousemove"},{"x":1029,"y":439,"t":297,"event":"mousemove"},{"x":1036,"y":436,"t":314,"event":"mousemove"},{"x":1039,"y":434,"t":330,"event":"mousemove"},{"x":1041,"y":434,"t":348,"event":"mousemove"},{"x":1043,"y":432,"t":363,"event":"mousemove"},{"x":1045,"y":432,"t":400,"event":"mousemove"},{"x":1046,"y":432,"t":404,"event":"mousemove"},{"x":1048,"y":432,"t":412,"event":"mousemove"},{"x":1050,"y":432,"t":421,"event":"mousemove"},{"x":1051,"y":432,"t":430,"event":"mousemove"},{"x":1053,"y":432,"t":458,"event":"mousemove"},{"x":1055,"y":432,"t":475,"event":"mousemove"},{"x":1056,"y":432,"t":495,"event":"mousemove"},{"x":1058,"y":432,"t":504,"event":"mousemove"},{"x":1060,"y":432,"t":505,"event":"mousemove"},{"x":1063,"y":432,"t":511,"event":"mousemove"},{"x":1065,"y":431,"t":516,"event":"mousemove"},{"x":1070,"y":427,"t":521,"event":"mousemove"},{"x":1074,"y":424,"t":526,"event":"mousemove"},{"x":1079,"y":417,"t":531,"event":"mousemove"},{"x":1084,"y":411,"t":532,"event":"mousemove"},{"x":1095,"y":397,"t":539,"event":"mousemove"},{"x":1100,"y":392,"t":541,"event":"mousemove"},{"x":1111,"y":377,"t":549,"event":"mousemove"},{"x":1116,"y":369,"t":551,"event":"mousemove"},{"x":1127,"y":349,"t":558,"event":"mousemove"},{"x":1130,"y":341,"t":562,"event":"mousemove"},{"x":1142,"y":324,"t":567,"event":"mousemove"},{"x":1160,"y":288,"t":579,"event":"mousemove"},{"x":1158,"y":288,"t":754,"event":"mousemove"}],"mouse_tracking_targets":{},"correct":true},{"rt":1665,"stimulus":"<p>How confident are you about your choice ? (click on the bar)</p>","slider_start":50,"response":91,"trial_type":"html-slider-response","trial_index":25,"time_elapsed":128265,"internal_node_id":"0.0-8.0-2.1"},{"rt":null,"stimulus":"\n        <div id='jspsych-image' style='position: relative; width: min(80vw, 80vh); height: min(80vw, 80vh);'>\n                \n                <div style='position: absolute; top: 40%; left: 30%; bottom: 40%; right: 30%;'><h1 style='font-size: 60px; color: green;'>Correct!</h1></div>\n                \n                <div class='jspsych-image' id='jspsych-image-0' data-choice='0' style='top: 0;     left: 0;'><img style=\"width: 100%; height: 100%;\" src='../static/human_exp_images/task_size/01_0.png' class=''></img></div>\n                <div class='jspsych-image' id='jspsych-image-1' data-choice='1' style='top: 0;     right: 0;'><img style=\"width: 100%; height: 100%;\" src='../static/human_exp_images/task_size/01_3.png' class='correct-choice'></img></div>\n                <div class='jspsych-image' id='jspsych-image-2' data-choice='2' style='bottom: 0;  left: 0;'><img style=\"width: 100%; height: 100%;\" src='../static/human_exp_images/task_size/01_2.png' class=''></img></div>\n                <div class='jspsych-image' id='jspsych-image-3' data-choice='3' style='bottom: 0;  right: 0;'><img style=\"width: 100%; height: 100%;\" src='../static/human_exp_images/task_size/01_1.png' class=''></img></div>\n\n        </div>","response":null,"trial_type":"html-keyboard-response","trial_index":26,"time_elapsed":129769,"internal_node_id":"0.0-8.0-3.1"},{"rt":null,"trial_type":"image-click","trial_index":27,"time_elapsed":578398,"internal_node_id":"0.0-8.0-0.2"}]