[{"success":true,"timeout":false,"failed_images":[],"failed_audio":[],"failed_video":[],"trial_type":"preload","trial_index":0,"time_elapsed":593,"internal_node_id":"0.0-0.0"},{"rt":807,"stimulus":"<p style='font-size: 40px'>Welcome to the experiment.</p><p style='font-size: 30px'>Press any key to begin.</p>","response":" ","trial_type":"html-keyboard-response","trial_index":1,"time_elapsed":1402,"internal_node_id":"0.0-1.0"},{"rt":878,"stimulus":"\n    <p>In this experiment, 4 images will appear on the screen. 3 out of 4 images were generated with a certain rule while one image (the odd one out) does not respect this rule. Select the odd one out by clicking on the image.</p>\n    <p>Following your choice, you will be asked to rate how confident you were about your choice on a scale from 1 to 100. Then, you will receive feedback on the trial.</p>\n    <p>For each rule you will perform 20 trials. You will be notified at each rule change. </p>\n    <p> Press any button to continue </p>\n    <div style='margin: auto; position: relative; width: 400px; height: 400px;'>\n        <div style='position: absolute; top: 0;     left: 0; '><img src='../static/img/square.png'></img></div>\n        <div style='position: absolute; top: 0;     right: 0;'><img src='../static/img/square.png'></img></div>\n        <div style='position: absolute; bottom: 0;  left: 0; '><img src='../static/img/square.png'></img></div>\n        <div style='position: absolute; bottom: 0;  right: 0;'><img src='../static/img/square.png'></img></div>\n    </div>\n","response":" ","trial_type":"html-keyboard-response","trial_index":2,"time_elapsed":2281,"internal_node_id":"0.0-2.0"},{"rt":1403,"stimulus":"<h1 style='font-size: 60px'>New Rule!</h1> <p>Press any key to begin.</p>","response":" ","trial_type":"html-keyboard-response","trial_index":3,"time_elapsed":5687,"internal_node_id":"0.0-3.0"},{"rt":5893,"response":0,"all_choices":["../static/human_exp_images/task_shape/00_3.png","../static/human_exp_images/task_shape/00_2.png","../static/human_exp_images/task_shape/00_0.png","../static/human_exp_images/task_shape/00_1.png"],"task":"response","correct_response":0,"shuffled_array":[3,2,0,1],"trial_type":"image-click","trial_index":4,"time_elapsed":11585,"internal_node_id":"0.0-4.0-0.0","mouse_tracking_data":[{"x":950,"y":413,"t":545,"event":"mousemove"},{"x":948,"y":413,"t":599,"event":"mousemove"},{"x":947,"y":413,"t":602,"event":"mousemove"},{"x":943,"y":413,"t":607,"event":"mousemove"},{"x":942,"y":413,"t":617,"event":"mousemove"},{"x":941,"y":413,"t":619,"event":"mousemove"},{"x":939,"y":413,"t":635,"event":"mousemove"},{"x":939,"y":413,"t":818,"event":"mousemove"},{"x":939,"y":411,"t":827,"event":"mousemove"},{"x":939,"y":409,"t":844,"event":"mousemove"},{"x":939,"y":408,"t":862,"event":"mousemove"},{"x":939,"y":406,"t":869,"event":"mousemove"},{"x":939,"y":402,"t":877,"event":"mousemove"},{"x":939,"y":400,"t":887,"event":"mousemove"},{"x":941,"y":400,"t":890,"event":"mousemove"},{"x":942,"y":398,"t":895,"event":"mousemove"},{"x":943,"y":397,"t":900,"event":"mousemove"},{"x":945,"y":393,"t":905,"event":"mousemove"},{"x":947,"y":393,"t":905,"event":"mousemove"},{"x":948,"y":391,"t":914,"event":"mousemove"},{"x":950,"y":389,"t":916,"event":"mousemove"},{"x":953,"y":387,"t":922,"event":"mousemove"},{"x":954,"y":386,"t":925,"event":"mousemove"},{"x":958,"y":382,"t":932,"event":"mousemove"},{"x":959,"y":381,"t":936,"event":"mousemove"},{"x":963,"y":376,"t":941,"event":"mousemove"},{"x":964,"y":376,"t":942,"event":"mousemove"},{"x":967,"y":371,"t":952,"event":"mousemove"},{"x":969,"y":371,"t":953,"event":"mousemove"},{"x":974,"y":365,"t":969,"event":"mousemove"},{"x":985,"y":355,"t":986,"event":"mousemove"},{"x":992,"y":345,"t":1002,"event":"mousemove"},{"x":996,"y":342,"t":1020,"event":"mousemove"},{"x":996,"y":340,"t":1036,"event":"mousemove"},{"x":996,"y":338,"t":1069,"event":"mousemove"},{"x":996,"y":337,"t":1086,"event":"mousemove"},{"x":996,"y":336,"t":1096,"event":"mousemove"},{"x":996,"y":334,"t":1100,"event":"mousemove"},{"x":996,"y":333,"t":1105,"event":"mousemove"},{"x":996,"y":331,"t":1114,"event":"mousemove"},{"x":996,"y":329,"t":1116,"event":"mousemove"},{"x":979,"y":323,"t":1132,"event":"mousemove"},{"x":960,"y":317,"t":1150,"event":"mousemove"},{"x":930,"y":305,"t":1165,"event":"mousemove"},{"x":907,"y":299,"t":1182,"event":"mousemove"},{"x":891,"y":293,"t":1198,"event":"mousemove"},{"x":883,"y":289,"t":1215,"event":"mousemove"},{"x":875,"y":287,"t":1233,"event":"mousemove"},{"x":872,"y":285,"t":1249,"event":"mousemove"},{"x":871,"y":285,"t":1265,"event":"mousemove"},{"x":869,"y":285,"t":1443,"event":"mousemove"},{"x":867,"y":285,"t":1453,"event":"mousemove"},{"x":866,"y":285,"t":1460,"event":"mousemove"},{"x":864,"y":285,"t":1460,"event":"mousemove"},{"x":862,"y":285,"t":1477,"event":"mousemove"},{"x":845,"y":280,"t":1494,"event":"mousemove"},{"x":820,"y":265,"t":1510,"event":"mousemove"},{"x":787,"y":241,"t":1527,"event":"mousemove"},{"x":753,"y":212,"t":1544,"event":"mousemove"},{"x":736,"y":198,"t":1561,"event":"mousemove"},{"x":719,"y":177,"t":1577,"event":"mousemove"},{"x":710,"y":164,"t":1593,"event":"mousemove"},{"x":709,"y":161,"t":1610,"event":"mousemove"},{"x":708,"y":161,"t":1627,"event":"mousemove"},{"x":706,"y":161,"t":1745,"event":"mousemove"},{"x":706,"y":160,"t":1764,"event":"mousemove"},{"x":706,"y":161,"t":2880,"event":"mousemove"},{"x":706,"y":162,"t":2886,"event":"mousemove"},{"x":706,"y":164,"t":2889,"event":"mousemove"},{"x":706,"y":167,"t":2895,"event":"mousemove"},{"x":706,"y":169,"t":2899,"event":"mousemove"},{"x":706,"y":172,"t":2905,"event":"mousemove"},{"x":706,"y":173,"t":2906,"event":"mousemove"},{"x":706,"y":177,"t":2916,"event":"mousemove"},{"x":706,"y":180,"t":2917,"event":"mousemove"},{"x":706,"y":183,"t":2933,"event":"mousemove"},{"x":706,"y":193,"t":2950,"event":"mousemove"},{"x":706,"y":206,"t":2966,"event":"mousemove"},{"x":706,"y":219,"t":2983,"event":"mousemove"},{"x":712,"y":235,"t":2999,"event":"mousemove"},{"x":722,"y":248,"t":3017,"event":"mousemove"},{"x":730,"y":257,"t":3032,"event":"mousemove"},{"x":736,"y":263,"t":3050,"event":"mousemove"},{"x":743,"y":272,"t":3066,"event":"mousemove"},{"x":750,"y":279,"t":3083,"event":"mousemove"},{"x":754,"y":287,"t":3100,"event":"mousemove"},{"x":760,"y":292,"t":3117,"event":"mousemove"},{"x":763,"y":294,"t":3134,"event":"mousemove"},{"x":765,"y":300,"t":3151,"event":"mousemove"},{"x":770,"y":301,"t":3168,"event":"mousemove"},{"x":774,"y":304,"t":3183,"event":"mousemove"},{"x":776,"y":305,"t":3200,"event":"mousemove"},{"x":778,"y":305,"t":3217,"event":"mousemove"},{"x":781,"y":305,"t":3234,"event":"mousemove"},{"x":785,"y":305,"t":3250,"event":"mousemove"},{"x":789,"y":305,"t":3267,"event":"mousemove"},{"x":796,"y":307,"t":3282,"event":"mousemove"},{"x":802,"y":309,"t":3300,"event":"mousemove"},{"x":808,"y":310,"t":3317,"event":"mousemove"},{"x":814,"y":312,"t":3334,"event":"mousemove"},{"x":830,"y":323,"t":3350,"event":"mousemove"},{"x":849,"y":335,"t":3366,"event":"mousemove"},{"x":867,"y":349,"t":3383,"event":"mousemove"},{"x":880,"y":361,"t":3400,"event":"mousemove"},{"x":887,"y":369,"t":3416,"event":"mousemove"},{"x":896,"y":376,"t":3433,"event":"mousemove"},{"x":900,"y":379,"t":3450,"event":"mousemove"},{"x":902,"y":382,"t":3467,"event":"mousemove"},{"x":904,"y":384,"t":3484,"event":"mousemove"},{"x":905,"y":384,"t":3516,"event":"mousemove"},{"x":902,"y":384,"t":3600,"event":"mousemove"},{"x":896,"y":384,"t":3606,"event":"mousemove"},{"x":892,"y":384,"t":3608,"event":"mousemove"},{"x":886,"y":384,"t":3614,"event":"mousemove"},{"x":882,"y":384,"t":3615,"event":"mousemove"},{"x":872,"y":382,"t":3631,"event":"mousemove"},{"x":856,"y":371,"t":3648,"event":"mousemove"},{"x":851,"y":367,"t":3664,"event":"mousemove"},{"x":849,"y":365,"t":3681,"event":"mousemove"},{"x":847,"y":365,"t":3697,"event":"mousemove"},{"x":845,"y":365,"t":3714,"event":"mousemove"},{"x":844,"y":365,"t":3767,"event":"mousemove"},{"x":844,"y":364,"t":3775,"event":"mousemove"},{"x":842,"y":364,"t":3786,"event":"mousemove"},{"x":842,"y":362,"t":3803,"event":"mousemove"},{"x":841,"y":362,"t":3811,"event":"mousemove"},{"x":841,"y":360,"t":3821,"event":"mousemove"},{"x":841,"y":359,"t":3838,"event":"mousemove"},{"x":841,"y":358,"t":3866,"event":"mousemove"},{"x":840,"y":358,"t":3875,"event":"mousemove"},{"x":840,"y":356,"t":3878,"event":"mousemove"},{"x":836,"y":354,"t":3884,"event":"mousemove"},{"x":835,"y":353,"t":3888,"event":"mousemove"},{"x":830,"y":348,"t":3893,"event":"mousemove"},{"x":827,"y":345,"t":3894,"event":"mousemove"},{"x":818,"y":336,"t":3910,"event":"mousemove"},{"x":797,"y":313,"t":3926,"event":"mousemove"},{"x":778,"y":293,"t":3943,"event":"mousemove"},{"x":776,"y":290,"t":3960,"event":"mousemove"},{"x":771,"y":283,"t":3976,"event":"mousemove"},{"x":769,"y":281,"t":3994,"event":"mousemove"},{"x":767,"y":281,"t":4009,"event":"mousemove"},{"x":765,"y":281,"t":4027,"event":"mousemove"},{"x":765,"y":281,"t":4056,"event":"mousemove"},{"x":763,"y":279,"t":4065,"event":"mousemove"},{"x":760,"y":276,"t":4076,"event":"mousemove"},{"x":743,"y":262,"t":4093,"event":"mousemove"},{"x":732,"y":252,"t":4110,"event":"mousemove"},{"x":721,"y":241,"t":4127,"event":"mousemove"},{"x":711,"y":233,"t":4143,"event":"mousemove"},{"x":705,"y":226,"t":4160,"event":"mousemove"},{"x":700,"y":224,"t":4178,"event":"mousemove"},{"x":700,"y":222,"t":4194,"event":"mousemove"},{"x":699,"y":221,"t":4210,"event":"mousemove"},{"x":698,"y":221,"t":4226,"event":"mousemove"},{"x":698,"y":219,"t":4244,"event":"mousemove"},{"x":698,"y":217,"t":4284,"event":"mousemove"},{"x":696,"y":217,"t":4292,"event":"mousemove"},{"x":696,"y":215,"t":4476,"event":"mousemove"},{"x":696,"y":215,"t":4493,"event":"mousemove"},{"x":696,"y":213,"t":4530,"event":"mousemove"},{"x":696,"y":211,"t":4548,"event":"mousemove"},{"x":696,"y":208,"t":4558,"event":"mousemove"},{"x":696,"y":205,"t":4567,"event":"mousemove"},{"x":696,"y":204,"t":4571,"event":"mousemove"},{"x":696,"y":202,"t":4576,"event":"mousemove"},{"x":696,"y":200,"t":4581,"event":"mousemove"},{"x":696,"y":197,"t":4584,"event":"mousemove"},{"x":696,"y":195,"t":4594,"event":"mousemove"},{"x":696,"y":194,"t":4603,"event":"mousemove"},{"x":696,"y":193,"t":4606,"event":"mousemove"},{"x":696,"y":191,"t":4622,"event":"mousemove"},{"x":696,"y":189,"t":4641,"event":"mousemove"},{"x":696,"y":188,"t":4659,"event":"mousemove"}],"mouse_tracking_targets":{},"correct":true},{"rt":1959,"stimulus":"<p>How confident are you about your choice ?</p>","slider_start":50,"response":79,"trial_type":"html-slider-response","trial_index":5,"time_elapsed":13547,"internal_node_id":"0.0-4.0-1.0"},{"rt":null,"stimulus":"\n        <div id='jspsych-image' style='position: relative; width: min(80vw, 80vh); height: min(80vw, 80vh);'>\n                \n                <div style='position: absolute; top: 40%; left: 30%; bottom: 40%; right: 30%;'><h1 style='font-size: 60px; color: green;'>Correct!</h1></div>\n                \n                <div class='jspsych-image' id='jspsych-image-0' data-choice='0' style='top: 0;     left: 0;'><img style=\"max-width: 100%; max-height: 100%;\" src='../static/human_exp_images/task_shape/00_3.png' class='correct-choice'></img></div>\n                <div class='jspsych-image' id='jspsych-image-1' data-choice='1' style='top: 0;     right: 0;'><img style=\"max-width: 100%; max-height: 100%;\" src='../static/human_exp_images/task_shape/00_2.png' class=''></img></div>\n                <div class='jspsych-image' id='jspsych-image-2' data-choice='2' style='bottom: 0;  left: 0;'><img style=\"max-width: 100%; max-height: 100%;\" src='../static/human_exp_images/task_shape/00_0.png' class=''></img></div>\n                <div class='jspsych-image' id='jspsych-image-3' data-choice='3' style='bottom: 0;  right: 0;'><img style=\"max-width: 100%; max-height: 100%;\" src='../static/human_exp_images/task_shape/00_1.png' class=''></img></div>\n\n        </div>","response":null,"trial_type":"html-keyboard-response","trial_index":6,"time_elapsed":15049,"internal_node_id":"0.0-4.0-2.0"},{"rt":6006,"response":1,"all_choices":["../static/human_exp_images/task_shape/01_2.png","../static/human_exp_images/task_shape/01_3.png","../static/human_exp_images/task_shape/01_0.png","../static/human_exp_images/task_shape/01_1.png"],"task":"response","correct_response":1,"shuffled_array":[2,3,0,1],"trial_type":"image-click","trial_index":7,"time_elapsed":21059,"internal_node_id":"0.0-4.0-0.1","mouse_tracking_data":[{"x":911,"y":511,"t":716,"event":"mousemove"},{"x":914,"y":511,"t":724,"event":"mousemove"},{"x":916,"y":511,"t":729,"event":"mousemove"},{"x":919,"y":511,"t":734,"event":"mousemove"},{"x":920,"y":511,"t":736,"event":"mousemove"},{"x":930,"y":511,"t":752,"event":"mousemove"},{"x":939,"y":511,"t":769,"event":"mousemove"},{"x":945,"y":509,"t":786,"event":"mousemove"},{"x":954,"y":504,"t":802,"event":"mousemove"},{"x":961,"y":500,"t":818,"event":"mousemove"},{"x":963,"y":498,"t":835,"event":"mousemove"},{"x":964,"y":498,"t":859,"event":"mousemove"},{"x":965,"y":498,"t":968,"event":"mousemove"},{"x":967,"y":498,"t":2343,"event":"mousemove"},{"x":968,"y":498,"t":3250,"event":"mousemove"},{"x":970,"y":498,"t":3285,"event":"mousemove"},{"x":970,"y":497,"t":3303,"event":"mousemove"},{"x":972,"y":497,"t":3340,"event":"mousemove"},{"x":972,"y":495,"t":3345,"event":"mousemove"},{"x":974,"y":493,"t":3348,"event":"mousemove"},{"x":976,"y":492,"t":3350,"event":"mousemove"},{"x":981,"y":487,"t":3366,"event":"mousemove"},{"x":985,"y":486,"t":3383,"event":"mousemove"},{"x":987,"y":482,"t":3400,"event":"mousemove"},{"x":989,"y":481,"t":3417,"event":"mousemove"},{"x":990,"y":481,"t":3433,"event":"mousemove"},{"x":990,"y":479,"t":3457,"event":"mousemove"},{"x":990,"y":478,"t":3537,"event":"mousemove"},{"x":992,"y":478,"t":3602,"event":"mousemove"},{"x":992,"y":476,"t":3620,"event":"mousemove"},{"x":992,"y":475,"t":3756,"event":"mousemove"},{"x":994,"y":475,"t":3774,"event":"mousemove"},{"x":994,"y":473,"t":4245,"event":"mousemove"},{"x":996,"y":470,"t":4253,"event":"mousemove"},{"x":996,"y":468,"t":4255,"event":"mousemove"},{"x":1001,"y":459,"t":4271,"event":"mousemove"},{"x":1007,"y":448,"t":4287,"event":"mousemove"},{"x":1012,"y":439,"t":4303,"event":"mousemove"},{"x":1020,"y":424,"t":4321,"event":"mousemove"},{"x":1023,"y":413,"t":4337,"event":"mousemove"},{"x":1027,"y":409,"t":4354,"event":"mousemove"},{"x":1027,"y":406,"t":4371,"event":"mousemove"},{"x":1028,"y":404,"t":4387,"event":"mousemove"},{"x":1028,"y":402,"t":4404,"event":"mousemove"},{"x":1028,"y":402,"t":4420,"event":"mousemove"},{"x":1028,"y":400,"t":4438,"event":"mousemove"},{"x":1031,"y":393,"t":4455,"event":"mousemove"},{"x":1034,"y":384,"t":4470,"event":"mousemove"},{"x":1039,"y":375,"t":4487,"event":"mousemove"},{"x":1040,"y":370,"t":4504,"event":"mousemove"},{"x":1042,"y":365,"t":4521,"event":"mousemove"},{"x":1042,"y":364,"t":4537,"event":"mousemove"},{"x":1042,"y":362,"t":4555,"event":"mousemove"},{"x":1043,"y":360,"t":4572,"event":"mousemove"},{"x":1045,"y":358,"t":4581,"event":"mousemove"},{"x":1045,"y":356,"t":4585,"event":"mousemove"},{"x":1047,"y":351,"t":4590,"event":"mousemove"},{"x":1049,"y":348,"t":4594,"event":"mousemove"},{"x":1050,"y":342,"t":4600,"event":"mousemove"},{"x":1050,"y":340,"t":4600,"event":"mousemove"},{"x":1053,"y":334,"t":4617,"event":"mousemove"},{"x":1054,"y":325,"t":4634,"event":"mousemove"},{"x":1056,"y":320,"t":4650,"event":"mousemove"},{"x":1056,"y":316,"t":4667,"event":"mousemove"},{"x":1056,"y":314,"t":4682,"event":"mousemove"},{"x":1061,"y":307,"t":4699,"event":"mousemove"},{"x":1069,"y":284,"t":4717,"event":"mousemove"},{"x":1080,"y":259,"t":4733,"event":"mousemove"},{"x":1095,"y":223,"t":4751,"event":"mousemove"},{"x":1108,"y":193,"t":4767,"event":"mousemove"},{"x":1117,"y":180,"t":4783,"event":"mousemove"},{"x":1118,"y":175,"t":4800,"event":"mousemove"},{"x":1118,"y":173,"t":4816,"event":"mousemove"}],"mouse_tracking_targets":{},"correct":true},{"rt":2019,"stimulus":"<p>How confident are you about your choice ?</p>","slider_start":50,"response":74,"trial_type":"html-slider-response","trial_index":8,"time_elapsed":23078,"internal_node_id":"0.0-4.0-1.1"},{"rt":null,"stimulus":"\n        <div id='jspsych-image' style='position: relative; width: min(80vw, 80vh); height: min(80vw, 80vh);'>\n                \n                <div style='position: absolute; top: 40%; left: 30%; bottom: 40%; right: 30%;'><h1 style='font-size: 60px; color: green;'>Correct!</h1></div>\n                \n                <div class='jspsych-image' id='jspsych-image-0' data-choice='0' style='top: 0;     left: 0;'><img style=\"max-width: 100%; max-height: 100%;\" src='../static/human_exp_images/task_shape/01_2.png' class=''></img></div>\n                <div class='jspsych-image' id='jspsych-image-1' data-choice='1' style='top: 0;     right: 0;'><img style=\"max-width: 100%; max-height: 100%;\" src='../static/human_exp_images/task_shape/01_3.png' class='correct-choice'></img></div>\n                <div class='jspsych-image' id='jspsych-image-2' data-choice='2' style='bottom: 0;  left: 0;'><img style=\"max-width: 100%; max-height: 100%;\" src='../static/human_exp_images/task_shape/01_0.png' class=''></img></div>\n                <div class='jspsych-image' id='jspsych-image-3' data-choice='3' style='bottom: 0;  right: 0;'><img style=\"max-width: 100%; max-height: 100%;\" src='../static/human_exp_images/task_shape/01_1.png' class=''></img></div>\n\n        </div>","response":null,"trial_type":"html-keyboard-response","trial_index":9,"time_elapsed":24583,"internal_node_id":"0.0-4.0-2.1"},{"rt":2536,"response":3,"all_choices":["../static/human_exp_images/task_shape/02_0.png","../static/human_exp_images/task_shape/02_2.png","../static/human_exp_images/task_shape/02_1.png","../static/human_exp_images/task_shape/02_3.png"],"task":"response","correct_response":3,"shuffled_array":[0,2,1,3],"trial_type":"image-click","trial_index":10,"time_elapsed":27122,"internal_node_id":"0.0-4.0-0.2","mouse_tracking_data":[{"x":907,"y":541,"t":1883,"event":"mousemove"},{"x":908,"y":541,"t":1887,"event":"mousemove"},{"x":909,"y":541,"t":1889,"event":"mousemove"},{"x":914,"y":541,"t":1905,"event":"mousemove"},{"x":922,"y":541,"t":1923,"event":"mousemove"},{"x":930,"y":541,"t":1939,"event":"mousemove"},{"x":945,"y":541,"t":1956,"event":"mousemove"},{"x":966,"y":541,"t":1972,"event":"mousemove"},{"x":987,"y":541,"t":1988,"event":"mousemove"},{"x":1004,"y":545,"t":2005,"event":"mousemove"},{"x":1024,"y":556,"t":2022,"event":"mousemove"},{"x":1032,"y":561,"t":2039,"event":"mousemove"},{"x":1034,"y":562,"t":2055,"event":"mousemove"},{"x":1035,"y":566,"t":2072,"event":"mousemove"}],"mouse_tracking_targets":{},"correct":true},{"rt":2795,"stimulus":"<p>How confident are you about your choice ?</p>","slider_start":50,"response":75,"trial_type":"html-slider-response","trial_index":11,"time_elapsed":29919,"internal_node_id":"0.0-4.0-1.2"},{"rt":null,"stimulus":"\n        <div id='jspsych-image' style='position: relative; width: min(80vw, 80vh); height: min(80vw, 80vh);'>\n                \n                <div style='position: absolute; top: 40%; left: 30%; bottom: 40%; right: 30%;'><h1 style='font-size: 60px; color: green;'>Correct!</h1></div>\n                \n                <div class='jspsych-image' id='jspsych-image-0' data-choice='0' style='top: 0;     left: 0;'><img style=\"max-width: 100%; max-height: 100%;\" src='../static/human_exp_images/task_shape/02_0.png' class=''></img></div>\n                <div class='jspsych-image' id='jspsych-image-1' data-choice='1' style='top: 0;     right: 0;'><img style=\"max-width: 100%; max-height: 100%;\" src='../static/human_exp_images/task_shape/02_2.png' class=''></img></div>\n                <div class='jspsych-image' id='jspsych-image-2' data-choice='2' style='bottom: 0;  left: 0;'><img style=\"max-width: 100%; max-height: 100%;\" src='../static/human_exp_images/task_shape/02_1.png' class=''></img></div>\n                <div class='jspsych-image' id='jspsych-image-3' data-choice='3' style='bottom: 0;  right: 0;'><img style=\"max-width: 100%; max-height: 100%;\" src='../static/human_exp_images/task_shape/02_3.png' class='correct-choice'></img></div>\n\n        </div>","response":null,"trial_type":"html-keyboard-response","trial_index":12,"time_elapsed":31421,"internal_node_id":"0.0-4.0-2.2"},{"rt":1025,"stimulus":"<h1 style='font-size: 60px'>New Rule!</h1> <p>Press any key to begin.</p>","response":" ","trial_type":"html-keyboard-response","trial_index":13,"time_elapsed":32447,"internal_node_id":"0.0-5.0"},{"rt":6915,"response":3,"all_choices":["../static/human_exp_images/task_pos/00_1.png","../static/human_exp_images/task_pos/00_2.png","../static/human_exp_images/task_pos/00_0.png","../static/human_exp_images/task_pos/00_3.png"],"task":"response","correct_response":3,"shuffled_array":[1,2,0,3],"trial_type":"image-click","trial_index":14,"time_elapsed":39364,"internal_node_id":"0.0-6.0-0.0","mouse_tracking_data":[{"x":933,"y":473,"t":2016,"event":"mousemove"},{"x":933,"y":475,"t":2019,"event":"mousemove"},{"x":933,"y":478,"t":2025,"event":"mousemove"},{"x":933,"y":481,"t":2033,"event":"mousemove"},{"x":933,"y":482,"t":2035,"event":"mousemove"},{"x":933,"y":486,"t":2051,"event":"mousemove"},{"x":931,"y":490,"t":2069,"event":"mousemove"},{"x":931,"y":493,"t":2084,"event":"mousemove"},{"x":930,"y":493,"t":2102,"event":"mousemove"},{"x":929,"y":495,"t":2119,"event":"mousemove"},{"x":925,"y":497,"t":2135,"event":"mousemove"},{"x":920,"y":500,"t":2151,"event":"mousemove"},{"x":919,"y":501,"t":2169,"event":"mousemove"},{"x":919,"y":502,"t":2275,"event":"mousemove"},{"x":919,"y":504,"t":2280,"event":"mousemove"},{"x":919,"y":508,"t":2289,"event":"mousemove"},{"x":919,"y":509,"t":2290,"event":"mousemove"},{"x":919,"y":515,"t":2306,"event":"mousemove"},{"x":918,"y":520,"t":2323,"event":"mousemove"},{"x":918,"y":526,"t":2340,"event":"mousemove"},{"x":918,"y":529,"t":2356,"event":"mousemove"},{"x":918,"y":531,"t":2373,"event":"mousemove"},{"x":918,"y":533,"t":2452,"event":"mousemove"},{"x":918,"y":534,"t":2459,"event":"mousemove"},{"x":918,"y":535,"t":2469,"event":"mousemove"},{"x":918,"y":537,"t":2479,"event":"mousemove"},{"x":918,"y":539,"t":2631,"event":"mousemove"},{"x":918,"y":540,"t":2649,"event":"mousemove"},{"x":918,"y":542,"t":2669,"event":"mousemove"},{"x":918,"y":544,"t":2696,"event":"mousemove"},{"x":918,"y":545,"t":2712,"event":"mousemove"},{"x":918,"y":546,"t":2730,"event":"mousemove"},{"x":918,"y":548,"t":2760,"event":"mousemove"},{"x":918,"y":550,"t":2775,"event":"mousemove"},{"x":919,"y":551,"t":2784,"event":"mousemove"},{"x":919,"y":553,"t":2785,"event":"mousemove"},{"x":920,"y":553,"t":2798,"event":"mousemove"},{"x":920,"y":555,"t":2804,"event":"mousemove"},{"x":922,"y":555,"t":2808,"event":"mousemove"},{"x":922,"y":556,"t":2813,"event":"mousemove"},{"x":924,"y":557,"t":2830,"event":"mousemove"},{"x":925,"y":557,"t":5376,"event":"mousemove"},{"x":927,"y":557,"t":5430,"event":"mousemove"},{"x":929,"y":557,"t":5445,"event":"mousemove"},{"x":930,"y":557,"t":5459,"event":"mousemove"},{"x":931,"y":557,"t":5485,"event":"mousemove"},{"x":933,"y":557,"t":5528,"event":"mousemove"},{"x":934,"y":557,"t":5619,"event":"mousemove"},{"x":936,"y":557,"t":6029,"event":"mousemove"},{"x":938,"y":557,"t":6112,"event":"mousemove"},{"x":939,"y":557,"t":6149,"event":"mousemove"},{"x":941,"y":557,"t":6165,"event":"mousemove"},{"x":942,"y":557,"t":6184,"event":"mousemove"},{"x":943,"y":557,"t":6197,"event":"mousemove"},{"x":945,"y":557,"t":6203,"event":"mousemove"},{"x":947,"y":557,"t":6212,"event":"mousemove"},{"x":949,"y":559,"t":6221,"event":"mousemove"},{"x":950,"y":559,"t":6230,"event":"mousemove"},{"x":952,"y":561,"t":6239,"event":"mousemove"},{"x":954,"y":561,"t":6248,"event":"mousemove"},{"x":956,"y":561,"t":6251,"event":"mousemove"},{"x":963,"y":561,"t":6267,"event":"mousemove"},{"x":969,"y":561,"t":6284,"event":"mousemove"},{"x":975,"y":561,"t":6300,"event":"mousemove"},{"x":981,"y":561,"t":6317,"event":"mousemove"},{"x":985,"y":561,"t":6334,"event":"mousemove"},{"x":996,"y":561,"t":6351,"event":"mousemove"},{"x":1003,"y":561,"t":6368,"event":"mousemove"},{"x":1009,"y":561,"t":6384,"event":"mousemove"},{"x":1018,"y":561,"t":6401,"event":"mousemove"},{"x":1029,"y":562,"t":6417,"event":"mousemove"},{"x":1042,"y":564,"t":6435,"event":"mousemove"},{"x":1051,"y":566,"t":6451,"event":"mousemove"},{"x":1056,"y":567,"t":6467,"event":"mousemove"},{"x":1056,"y":568,"t":6596,"event":"mousemove"},{"x":1056,"y":570,"t":6606,"event":"mousemove"},{"x":1056,"y":572,"t":6625,"event":"mousemove"}],"mouse_tracking_targets":{},"correct":true},{"rt":2569,"stimulus":"<p>How confident are you about your choice ?</p>","slider_start":50,"response":78,"trial_type":"html-slider-response","trial_index":15,"time_elapsed":41935,"internal_node_id":"0.0-6.0-1.0"},{"rt":null,"stimulus":"\n        <div id='jspsych-image' style='position: relative; width: min(80vw, 80vh); height: min(80vw, 80vh);'>\n                \n                <div style='position: absolute; top: 40%; left: 30%; bottom: 40%; right: 30%;'><h1 style='font-size: 60px; color: green;'>Correct!</h1></div>\n                \n                <div class='jspsych-image' id='jspsych-image-0' data-choice='0' style='top: 0;     left: 0;'><img style=\"max-width: 100%; max-height: 100%;\" src='../static/human_exp_images/task_pos/00_1.png' class=''></img></div>\n                <div class='jspsych-image' id='jspsych-image-1' data-choice='1' style='top: 0;     right: 0;'><img style=\"max-width: 100%; max-height: 100%;\" src='../static/human_exp_images/task_pos/00_2.png' class=''></img></div>\n                <div class='jspsych-image' id='jspsych-image-2' data-choice='2' style='bottom: 0;  left: 0;'><img style=\"max-width: 100%; max-height: 100%;\" src='../static/human_exp_images/task_pos/00_0.png' class=''></img></div>\n                <div class='jspsych-image' id='jspsych-image-3' data-choice='3' style='bottom: 0;  right: 0;'><img style=\"max-width: 100%; max-height: 100%;\" src='../static/human_exp_images/task_pos/00_3.png' class='correct-choice'></img></div>\n\n        </div>","response":null,"trial_type":"html-keyboard-response","trial_index":16,"time_elapsed":43438,"internal_node_id":"0.0-6.0-2.0"},{"rt":2897,"response":2,"all_choices":["../static/human_exp_images/task_pos/01_0.png","../static/human_exp_images/task_pos/01_1.png","../static/human_exp_images/task_pos/01_3.png","../static/human_exp_images/task_pos/01_2.png"],"task":"response","correct_response":2,"shuffled_array":[0,1,3,2],"trial_type":"image-click","trial_index":17,"time_elapsed":46338,"internal_node_id":"0.0-6.0-0.1","mouse_tracking_data":[{"x":911,"y":555,"t":665,"event":"mousemove"},{"x":911,"y":556,"t":684,"event":"mousemove"},{"x":913,"y":556,"t":691,"event":"mousemove"},{"x":915,"y":556,"t":773,"event":"mousemove"},{"x":916,"y":556,"t":810,"event":"mousemove"},{"x":916,"y":557,"t":2259,"event":"mousemove"},{"x":910,"y":557,"t":2260,"event":"mousemove"},{"x":885,"y":557,"t":2276,"event":"mousemove"},{"x":866,"y":559,"t":2293,"event":"mousemove"},{"x":831,"y":562,"t":2310,"event":"mousemove"},{"x":794,"y":568,"t":2327,"event":"mousemove"},{"x":763,"y":573,"t":2342,"event":"mousemove"},{"x":743,"y":578,"t":2360,"event":"mousemove"},{"x":728,"y":582,"t":2376,"event":"mousemove"},{"x":721,"y":586,"t":2393,"event":"mousemove"},{"x":710,"y":590,"t":2411,"event":"mousemove"},{"x":699,"y":597,"t":2426,"event":"mousemove"},{"x":687,"y":604,"t":2443,"event":"mousemove"},{"x":680,"y":610,"t":2460,"event":"mousemove"},{"x":682,"y":610,"t":2606,"event":"mousemove"}],"mouse_tracking_targets":{},"correct":true},{"rt":3761,"stimulus":"<p>How confident are you about your choice ?</p>","slider_start":50,"response":76,"trial_type":"html-slider-response","trial_index":18,"time_elapsed":50101,"internal_node_id":"0.0-6.0-1.1"},{"rt":null,"stimulus":"\n        <div id='jspsych-image' style='position: relative; width: min(80vw, 80vh); height: min(80vw, 80vh);'>\n                \n                <div style='position: absolute; top: 40%; left: 30%; bottom: 40%; right: 30%;'><h1 style='font-size: 60px; color: green;'>Correct!</h1></div>\n                \n                <div class='jspsych-image' id='jspsych-image-0' data-choice='0' style='top: 0;     left: 0;'><img style=\"max-width: 100%; max-height: 100%;\" src='../static/human_exp_images/task_pos/01_0.png' class=''></img></div>\n                <div class='jspsych-image' id='jspsych-image-1' data-choice='1' style='top: 0;     right: 0;'><img style=\"max-width: 100%; max-height: 100%;\" src='../static/human_exp_images/task_pos/01_1.png' class=''></img></div>\n                <div class='jspsych-image' id='jspsych-image-2' data-choice='2' style='bottom: 0;  left: 0;'><img style=\"max-width: 100%; max-height: 100%;\" src='../static/human_exp_images/task_pos/01_3.png' class='correct-choice'></img></div>\n                <div class='jspsych-image' id='jspsych-image-3' data-choice='3' style='bottom: 0;  right: 0;'><img style=\"max-width: 100%; max-height: 100%;\" src='../static/human_exp_images/task_pos/01_2.png' class=''></img></div>\n\n        </div>","response":null,"trial_type":"html-keyboard-response","trial_index":19,"time_elapsed":51604,"internal_node_id":"0.0-6.0-2.1"},{"rt":2600,"response":3,"all_choices":["../static/human_exp_images/task_pos/02_2.png","../static/human_exp_images/task_pos/02_0.png","../static/human_exp_images/task_pos/02_1.png","../static/human_exp_images/task_pos/02_3.png"],"task":"response","correct_response":3,"shuffled_array":[2,0,1,3],"trial_type":"image-click","trial_index":20,"time_elapsed":54207,"internal_node_id":"0.0-6.0-0.2","mouse_tracking_data":[{"x":886,"y":567,"t":1771,"event":"mousemove"},{"x":884,"y":567,"t":1794,"event":"mousemove"},{"x":886,"y":567,"t":1869,"event":"mousemove"},{"x":888,"y":567,"t":1870,"event":"mousemove"},{"x":905,"y":567,"t":1886,"event":"mousemove"},{"x":918,"y":568,"t":1904,"event":"mousemove"},{"x":933,"y":576,"t":1919,"event":"mousemove"},{"x":947,"y":586,"t":1937,"event":"mousemove"},{"x":956,"y":592,"t":1953,"event":"mousemove"},{"x":963,"y":597,"t":1971,"event":"mousemove"},{"x":970,"y":599,"t":1987,"event":"mousemove"},{"x":981,"y":603,"t":2004,"event":"mousemove"},{"x":992,"y":606,"t":2020,"event":"mousemove"},{"x":1005,"y":606,"t":2037,"event":"mousemove"},{"x":1018,"y":606,"t":2053,"event":"mousemove"},{"x":1031,"y":606,"t":2069,"event":"mousemove"},{"x":1044,"y":606,"t":2087,"event":"mousemove"},{"x":1051,"y":606,"t":2103,"event":"mousemove"},{"x":1056,"y":606,"t":2120,"event":"mousemove"}],"mouse_tracking_targets":{},"correct":true},{"rt":2645,"stimulus":"<p>How confident are you about your choice ?</p>","slider_start":50,"response":80,"trial_type":"html-slider-response","trial_index":21,"time_elapsed":56854,"internal_node_id":"0.0-6.0-1.2"},{"rt":null,"stimulus":"\n        <div id='jspsych-image' style='position: relative; width: min(80vw, 80vh); height: min(80vw, 80vh);'>\n                \n                <div style='position: absolute; top: 40%; left: 30%; bottom: 40%; right: 30%;'><h1 style='font-size: 60px; color: green;'>Correct!</h1></div>\n                \n                <div class='jspsych-image' id='jspsych-image-0' data-choice='0' style='top: 0;     left: 0;'><img style=\"max-width: 100%; max-height: 100%;\" src='../static/human_exp_images/task_pos/02_2.png' class=''></img></div>\n                <div class='jspsych-image' id='jspsych-image-1' data-choice='1' style='top: 0;     right: 0;'><img style=\"max-width: 100%; max-height: 100%;\" src='../static/human_exp_images/task_pos/02_0.png' class=''></img></div>\n                <div class='jspsych-image' id='jspsych-image-2' data-choice='2' style='bottom: 0;  left: 0;'><img style=\"max-width: 100%; max-height: 100%;\" src='../static/human_exp_images/task_pos/02_1.png' class=''></img></div>\n                <div class='jspsych-image' id='jspsych-image-3' data-choice='3' style='bottom: 0;  right: 0;'><img style=\"max-width: 100%; max-height: 100%;\" src='../static/human_exp_images/task_pos/02_3.png' class='correct-choice'></img></div>\n\n        </div>","response":null,"trial_type":"html-keyboard-response","trial_index":22,"time_elapsed":58358,"internal_node_id":"0.0-6.0-2.2"},{"rt":1150,"stimulus":"<h1 style='font-size: 60px'>New Rule!</h1> <p>Press any key to begin.</p>","response":" ","trial_type":"html-keyboard-response","trial_index":23,"time_elapsed":59509,"internal_node_id":"0.0-7.0"},{"rt":211318,"response":0,"all_choices":["../static/human_exp_images/task_pos_shape_1/00_3.png","../static/human_exp_images/task_pos_shape_1/00_1.png","../static/human_exp_images/task_pos_shape_1/00_2.png","../static/human_exp_images/task_pos_shape_1/00_0.png"],"task":"response","correct_response":0,"shuffled_array":[3,1,2,0],"trial_type":"image-click","trial_index":24,"time_elapsed":270830,"internal_node_id":"0.0-8.0-0.0","mouse_tracking_data":[{"x":953,"y":530,"t":206056,"event":"mousemove"},{"x":953,"y":531,"t":206065,"event":"mousemove"},{"x":953,"y":533,"t":206072,"event":"mousemove"},{"x":952,"y":533,"t":206080,"event":"mousemove"},{"x":951,"y":533,"t":206091,"event":"mousemove"},{"x":949,"y":533,"t":206098,"event":"mousemove"},{"x":948,"y":533,"t":206107,"event":"mousemove"},{"x":946,"y":533,"t":206117,"event":"mousemove"},{"x":944,"y":533,"t":206121,"event":"mousemove"},{"x":942,"y":533,"t":206135,"event":"mousemove"},{"x":941,"y":533,"t":206144,"event":"mousemove"},{"x":940,"y":533,"t":206146,"event":"mousemove"},{"x":938,"y":533,"t":206152,"event":"mousemove"},{"x":937,"y":533,"t":206156,"event":"mousemove"},{"x":931,"y":533,"t":206161,"event":"mousemove"},{"x":930,"y":533,"t":206162,"event":"mousemove"},{"x":922,"y":531,"t":206178,"event":"mousemove"},{"x":900,"y":502,"t":206196,"event":"mousemove"},{"x":879,"y":475,"t":206212,"event":"mousemove"},{"x":867,"y":436,"t":206228,"event":"mousemove"},{"x":857,"y":384,"t":206244,"event":"mousemove"},{"x":854,"y":342,"t":206261,"event":"mousemove"},{"x":854,"y":279,"t":206278,"event":"mousemove"},{"x":854,"y":248,"t":206295,"event":"mousemove"},{"x":854,"y":206,"t":206312,"event":"mousemove"},{"x":854,"y":183,"t":206328,"event":"mousemove"},{"x":859,"y":175,"t":206345,"event":"mousemove"},{"x":861,"y":175,"t":206361,"event":"mousemove"},{"x":862,"y":175,"t":206396,"event":"mousemove"},{"x":864,"y":175,"t":206598,"event":"mousemove"},{"x":865,"y":175,"t":206612,"event":"mousemove"},{"x":867,"y":175,"t":206613,"event":"mousemove"},{"x":867,"y":177,"t":206630,"event":"mousemove"},{"x":868,"y":182,"t":206647,"event":"mousemove"},{"x":870,"y":184,"t":206663,"event":"mousemove"},{"x":870,"y":186,"t":206680,"event":"mousemove"},{"x":870,"y":188,"t":206866,"event":"mousemove"},{"x":870,"y":189,"t":208470,"event":"mousemove"},{"x":870,"y":191,"t":208488,"event":"mousemove"},{"x":870,"y":193,"t":208507,"event":"mousemove"},{"x":870,"y":193,"t":208534,"event":"mousemove"},{"x":870,"y":195,"t":208552,"event":"mousemove"},{"x":870,"y":197,"t":208571,"event":"mousemove"},{"x":870,"y":199,"t":208588,"event":"mousemove"},{"x":870,"y":200,"t":208662,"event":"mousemove"},{"x":872,"y":200,"t":208690,"event":"mousemove"},{"x":872,"y":202,"t":208697,"event":"mousemove"},{"x":872,"y":204,"t":208715,"event":"mousemove"},{"x":873,"y":204,"t":208741,"event":"mousemove"},{"x":873,"y":206,"t":208753,"event":"mousemove"},{"x":875,"y":206,"t":208759,"event":"mousemove"},{"x":875,"y":208,"t":208764,"event":"mousemove"},{"x":875,"y":209,"t":208769,"event":"mousemove"},{"x":876,"y":211,"t":208789,"event":"mousemove"},{"x":876,"y":213,"t":208791,"event":"mousemove"},{"x":878,"y":215,"t":208807,"event":"mousemove"},{"x":879,"y":217,"t":208824,"event":"mousemove"},{"x":879,"y":219,"t":208840,"event":"mousemove"},{"x":881,"y":222,"t":208857,"event":"mousemove"},{"x":886,"y":230,"t":208873,"event":"mousemove"},{"x":892,"y":239,"t":208891,"event":"mousemove"},{"x":897,"y":247,"t":208907,"event":"mousemove"},{"x":899,"y":252,"t":208923,"event":"mousemove"},{"x":912,"y":266,"t":208941,"event":"mousemove"},{"x":927,"y":284,"t":208957,"event":"mousemove"},{"x":946,"y":308,"t":208974,"event":"mousemove"},{"x":963,"y":329,"t":208990,"event":"mousemove"},{"x":986,"y":362,"t":209007,"event":"mousemove"},{"x":996,"y":376,"t":209023,"event":"mousemove"},{"x":1007,"y":402,"t":209041,"event":"mousemove"},{"x":1015,"y":423,"t":209058,"event":"mousemove"},{"x":1015,"y":436,"t":209074,"event":"mousemove"},{"x":1015,"y":439,"t":209092,"event":"mousemove"},{"x":1014,"y":439,"t":209413,"event":"mousemove"},{"x":1012,"y":439,"t":209433,"event":"mousemove"},{"x":1010,"y":438,"t":209441,"event":"mousemove"},{"x":1008,"y":438,"t":209443,"event":"mousemove"},{"x":1006,"y":438,"t":209459,"event":"mousemove"},{"x":1001,"y":435,"t":209476,"event":"mousemove"},{"x":984,"y":424,"t":209492,"event":"mousemove"},{"x":960,"y":405,"t":209509,"event":"mousemove"},{"x":940,"y":388,"t":209525,"event":"mousemove"},{"x":915,"y":356,"t":209543,"event":"mousemove"},{"x":898,"y":332,"t":209558,"event":"mousemove"},{"x":886,"y":318,"t":209575,"event":"mousemove"},{"x":869,"y":298,"t":209591,"event":"mousemove"},{"x":853,"y":284,"t":209609,"event":"mousemove"},{"x":840,"y":273,"t":209626,"event":"mousemove"},{"x":835,"y":269,"t":209642,"event":"mousemove"},{"x":833,"y":267,"t":209659,"event":"mousemove"},{"x":833,"y":265,"t":209704,"event":"mousemove"},{"x":833,"y":264,"t":210169,"event":"mousemove"},{"x":833,"y":262,"t":210214,"event":"mousemove"},{"x":833,"y":260,"t":210242,"event":"mousemove"},{"x":833,"y":259,"t":210260,"event":"mousemove"},{"x":833,"y":258,"t":210278,"event":"mousemove"},{"x":831,"y":254,"t":210287,"event":"mousemove"},{"x":827,"y":253,"t":210296,"event":"mousemove"},{"x":826,"y":251,"t":210300,"event":"mousemove"},{"x":824,"y":248,"t":210305,"event":"mousemove"},{"x":822,"y":248,"t":210310,"event":"mousemove"},{"x":821,"y":247,"t":210313,"event":"mousemove"},{"x":820,"y":247,"t":210314,"event":"mousemove"},{"x":818,"y":243,"t":210331,"event":"mousemove"},{"x":815,"y":242,"t":210348,"event":"mousemove"},{"x":811,"y":238,"t":210364,"event":"mousemove"},{"x":810,"y":237,"t":210381,"event":"mousemove"},{"x":809,"y":237,"t":210397,"event":"mousemove"},{"x":807,"y":236,"t":210414,"event":"mousemove"},{"x":804,"y":233,"t":210430,"event":"mousemove"},{"x":802,"y":231,"t":210448,"event":"mousemove"},{"x":800,"y":231,"t":210464,"event":"mousemove"},{"x":799,"y":229,"t":210481,"event":"mousemove"},{"x":799,"y":227,"t":210497,"event":"mousemove"},{"x":798,"y":226,"t":210514,"event":"mousemove"},{"x":798,"y":225,"t":210641,"event":"mousemove"},{"x":798,"y":223,"t":210659,"event":"mousemove"},{"x":798,"y":222,"t":210724,"event":"mousemove"},{"x":798,"y":220,"t":210788,"event":"mousemove"},{"x":796,"y":220,"t":210797,"event":"mousemove"},{"x":796,"y":218,"t":210798,"event":"mousemove"},{"x":795,"y":216,"t":210814,"event":"mousemove"},{"x":793,"y":215,"t":210832,"event":"mousemove"},{"x":791,"y":214,"t":210847,"event":"mousemove"},{"x":787,"y":211,"t":210864,"event":"mousemove"},{"x":779,"y":205,"t":210881,"event":"mousemove"},{"x":766,"y":200,"t":210898,"event":"mousemove"},{"x":759,"y":196,"t":210915,"event":"mousemove"},{"x":754,"y":192,"t":210930,"event":"mousemove"},{"x":747,"y":188,"t":210948,"event":"mousemove"},{"x":739,"y":183,"t":210964,"event":"mousemove"},{"x":730,"y":179,"t":210981,"event":"mousemove"},{"x":723,"y":176,"t":210998,"event":"mousemove"},{"x":716,"y":172,"t":211015,"event":"mousemove"},{"x":710,"y":171,"t":211031,"event":"mousemove"},{"x":703,"y":168,"t":211048,"event":"mousemove"},{"x":699,"y":167,"t":211064,"event":"mousemove"},{"x":695,"y":165,"t":211081,"event":"mousemove"},{"x":694,"y":165,"t":211097,"event":"mousemove"},{"x":692,"y":165,"t":211115,"event":"mousemove"}],"mouse_tracking_targets":{},"correct":true},{"rt":2309,"stimulus":"<p>How confident are you about your choice ?</p>","slider_start":50,"response":84,"trial_type":"html-slider-response","trial_index":25,"time_elapsed":273143,"internal_node_id":"0.0-8.0-1.0"},{"rt":null,"stimulus":"\n        <div id='jspsych-image' style='position: relative; width: min(80vw, 80vh); height: min(80vw, 80vh);'>\n                \n                <div style='position: absolute; top: 40%; left: 30%; bottom: 40%; right: 30%;'><h1 style='font-size: 60px; color: green;'>Correct!</h1></div>\n                \n                <div class='jspsych-image' id='jspsych-image-0' data-choice='0' style='top: 0;     left: 0;'><img style=\"max-width: 100%; max-height: 100%;\" src='../static/human_exp_images/task_pos_shape_1/00_3.png' class='correct-choice'></img></div>\n                <div class='jspsych-image' id='jspsych-image-1' data-choice='1' style='top: 0;     right: 0;'><img style=\"max-width: 100%; max-height: 100%;\" src='../static/human_exp_images/task_pos_shape_1/00_1.png' class=''></img></div>\n                <div class='jspsych-image' id='jspsych-image-2' data-choice='2' style='bottom: 0;  left: 0;'><img style=\"max-width: 100%; max-height: 100%;\" src='../static/human_exp_images/task_pos_shape_1/00_2.png' class=''></img></div>\n                <div class='jspsych-image' id='jspsych-image-3' data-choice='3' style='bottom: 0;  right: 0;'><img style=\"max-width: 100%; max-height: 100%;\" src='../static/human_exp_images/task_pos_shape_1/00_0.png' class=''></img></div>\n\n        </div>","response":null,"trial_type":"html-keyboard-response","trial_index":26,"time_elapsed":274647,"internal_node_id":"0.0-8.0-2.0"},{"rt":137233,"response":3,"all_choices":["../static/human_exp_images/task_pos_shape_1/01_2.png","../static/human_exp_images/task_pos_shape_1/01_0.png","../static/human_exp_images/task_pos_shape_1/01_1.png","../static/human_exp_images/task_pos_shape_1/01_3.png"],"task":"response","correct_response":3,"shuffled_array":[2,0,1,3],"trial_type":"image-click","trial_index":27,"time_elapsed":411885,"internal_node_id":"0.0-8.0-0.1","mouse_tracking_data":[{"x":935,"y":421,"t":130612,"event":"mousemove"},{"x":933,"y":421,"t":130628,"event":"mousemove"},{"x":931,"y":421,"t":130637,"event":"mousemove"},{"x":930,"y":421,"t":130647,"event":"mousemove"},{"x":929,"y":421,"t":130655,"event":"mousemove"},{"x":927,"y":421,"t":130664,"event":"mousemove"},{"x":926,"y":421,"t":130673,"event":"mousemove"},{"x":924,"y":421,"t":130677,"event":"mousemove"},{"x":922,"y":421,"t":130683,"event":"mousemove"},{"x":920,"y":421,"t":130692,"event":"mousemove"},{"x":919,"y":421,"t":130711,"event":"mousemove"},{"x":916,"y":421,"t":130720,"event":"mousemove"},{"x":913,"y":421,"t":130729,"event":"mousemove"},{"x":909,"y":421,"t":130738,"event":"mousemove"},{"x":908,"y":421,"t":130739,"event":"mousemove"},{"x":902,"y":421,"t":130756,"event":"mousemove"},{"x":897,"y":420,"t":130773,"event":"mousemove"},{"x":886,"y":420,"t":130788,"event":"mousemove"},{"x":875,"y":418,"t":130805,"event":"mousemove"},{"x":864,"y":416,"t":130822,"event":"mousemove"},{"x":856,"y":415,"t":130839,"event":"mousemove"},{"x":847,"y":415,"t":130855,"event":"mousemove"},{"x":842,"y":415,"t":130871,"event":"mousemove"},{"x":833,"y":415,"t":130889,"event":"mousemove"},{"x":827,"y":415,"t":130905,"event":"mousemove"},{"x":824,"y":415,"t":130922,"event":"mousemove"},{"x":820,"y":415,"t":130939,"event":"mousemove"},{"x":819,"y":415,"t":130955,"event":"mousemove"},{"x":818,"y":415,"t":130973,"event":"mousemove"},{"x":813,"y":415,"t":130989,"event":"mousemove"},{"x":809,"y":415,"t":131005,"event":"mousemove"},{"x":808,"y":413,"t":131021,"event":"mousemove"},{"x":807,"y":413,"t":131039,"event":"mousemove"},{"x":805,"y":413,"t":131056,"event":"mousemove"},{"x":803,"y":413,"t":131072,"event":"mousemove"},{"x":802,"y":413,"t":131092,"event":"mousemove"},{"x":802,"y":412,"t":131838,"event":"mousemove"},{"x":803,"y":412,"t":135304,"event":"mousemove"},{"x":805,"y":412,"t":135306,"event":"mousemove"},{"x":807,"y":412,"t":135323,"event":"mousemove"},{"x":808,"y":412,"t":135340,"event":"mousemove"},{"x":811,"y":412,"t":135355,"event":"mousemove"},{"x":812,"y":412,"t":135372,"event":"mousemove"},{"x":814,"y":412,"t":135389,"event":"mousemove"},{"x":816,"y":412,"t":135406,"event":"mousemove"},{"x":818,"y":412,"t":135423,"event":"mousemove"},{"x":819,"y":412,"t":135442,"event":"mousemove"},{"x":820,"y":412,"t":135453,"event":"mousemove"},{"x":822,"y":412,"t":135467,"event":"mousemove"},{"x":823,"y":412,"t":135485,"event":"mousemove"},{"x":825,"y":412,"t":135503,"event":"mousemove"},{"x":827,"y":412,"t":135531,"event":"mousemove"},{"x":828,"y":412,"t":135549,"event":"mousemove"},{"x":830,"y":412,"t":135567,"event":"mousemove"},{"x":831,"y":412,"t":135570,"event":"mousemove"},{"x":833,"y":412,"t":135586,"event":"mousemove"},{"x":834,"y":412,"t":135602,"event":"mousemove"},{"x":836,"y":412,"t":135618,"event":"mousemove"},{"x":838,"y":412,"t":135636,"event":"mousemove"},{"x":839,"y":412,"t":135652,"event":"mousemove"},{"x":841,"y":412,"t":135669,"event":"mousemove"},{"x":842,"y":412,"t":135685,"event":"mousemove"},{"x":845,"y":412,"t":135703,"event":"mousemove"},{"x":847,"y":412,"t":135718,"event":"mousemove"},{"x":850,"y":412,"t":135735,"event":"mousemove"},{"x":856,"y":413,"t":135752,"event":"mousemove"},{"x":863,"y":417,"t":135769,"event":"mousemove"},{"x":869,"y":420,"t":135786,"event":"mousemove"},{"x":880,"y":424,"t":135803,"event":"mousemove"},{"x":887,"y":428,"t":135820,"event":"mousemove"},{"x":902,"y":434,"t":135835,"event":"mousemove"},{"x":914,"y":442,"t":135852,"event":"mousemove"},{"x":924,"y":448,"t":135869,"event":"mousemove"},{"x":931,"y":455,"t":135886,"event":"mousemove"},{"x":941,"y":460,"t":135902,"event":"mousemove"},{"x":952,"y":467,"t":135919,"event":"mousemove"},{"x":958,"y":471,"t":135935,"event":"mousemove"},{"x":966,"y":476,"t":135952,"event":"mousemove"},{"x":974,"y":481,"t":135968,"event":"mousemove"},{"x":980,"y":486,"t":135986,"event":"mousemove"},{"x":984,"y":487,"t":136002,"event":"mousemove"},{"x":986,"y":489,"t":136019,"event":"mousemove"},{"x":989,"y":490,"t":136036,"event":"mousemove"},{"x":991,"y":492,"t":136053,"event":"mousemove"},{"x":991,"y":493,"t":136393,"event":"mousemove"},{"x":993,"y":493,"t":136515,"event":"mousemove"},{"x":994,"y":495,"t":136522,"event":"mousemove"},{"x":996,"y":496,"t":136530,"event":"mousemove"},{"x":996,"y":498,"t":136533,"event":"mousemove"},{"x":997,"y":498,"t":136540,"event":"mousemove"},{"x":999,"y":498,"t":136549,"event":"mousemove"},{"x":1000,"y":500,"t":136550,"event":"mousemove"},{"x":1002,"y":501,"t":136566,"event":"mousemove"},{"x":1004,"y":501,"t":136583,"event":"mousemove"},{"x":1007,"y":502,"t":136599,"event":"mousemove"},{"x":1013,"y":506,"t":136616,"event":"mousemove"},{"x":1018,"y":507,"t":136633,"event":"mousemove"},{"x":1019,"y":509,"t":136649,"event":"mousemove"},{"x":1022,"y":511,"t":136666,"event":"mousemove"},{"x":1027,"y":513,"t":136683,"event":"mousemove"},{"x":1030,"y":515,"t":136700,"event":"mousemove"},{"x":1033,"y":517,"t":136716,"event":"mousemove"},{"x":1035,"y":517,"t":136734,"event":"mousemove"},{"x":1037,"y":518,"t":136750,"event":"mousemove"},{"x":1040,"y":522,"t":136767,"event":"mousemove"},{"x":1044,"y":524,"t":136782,"event":"mousemove"},{"x":1046,"y":526,"t":136799,"event":"mousemove"},{"x":1049,"y":529,"t":136817,"event":"mousemove"},{"x":1055,"y":534,"t":136833,"event":"mousemove"},{"x":1058,"y":535,"t":136850,"event":"mousemove"},{"x":1060,"y":537,"t":136866,"event":"mousemove"},{"x":1060,"y":539,"t":136883,"event":"mousemove"},{"x":1062,"y":540,"t":136899,"event":"mousemove"},{"x":1063,"y":540,"t":136917,"event":"mousemove"},{"x":1063,"y":542,"t":136960,"event":"mousemove"},{"x":1064,"y":542,"t":136962,"event":"mousemove"},{"x":1066,"y":544,"t":136978,"event":"mousemove"},{"x":1068,"y":546,"t":136995,"event":"mousemove"},{"x":1069,"y":546,"t":137011,"event":"mousemove"},{"x":1071,"y":548,"t":137029,"event":"mousemove"}],"mouse_tracking_targets":{},"correct":true},{"rt":1799,"stimulus":"<p>How confident are you about your choice ?</p>","slider_start":50,"response":78,"trial_type":"html-slider-response","trial_index":28,"time_elapsed":413685,"internal_node_id":"0.0-8.0-1.1"},{"rt":null,"stimulus":"\n        <div id='jspsych-image' style='position: relative; width: min(80vw, 80vh); height: min(80vw, 80vh);'>\n                \n                <div style='position: absolute; top: 40%; left: 30%; bottom: 40%; right: 30%;'><h1 style='font-size: 60px; color: green;'>Correct!</h1></div>\n                \n                <div class='jspsych-image' id='jspsych-image-0' data-choice='0' style='top: 0;     left: 0;'><img style=\"max-width: 100%; max-height: 100%;\" src='../static/human_exp_images/task_pos_shape_1/01_2.png' class=''></img></div>\n                <div class='jspsych-image' id='jspsych-image-1' data-choice='1' style='top: 0;     right: 0;'><img style=\"max-width: 100%; max-height: 100%;\" src='../static/human_exp_images/task_pos_shape_1/01_0.png' class=''></img></div>\n                <div class='jspsych-image' id='jspsych-image-2' data-choice='2' style='bottom: 0;  left: 0;'><img style=\"max-width: 100%; max-height: 100%;\" src='../static/human_exp_images/task_pos_shape_1/01_1.png' class=''></img></div>\n                <div class='jspsych-image' id='jspsych-image-3' data-choice='3' style='bottom: 0;  right: 0;'><img style=\"max-width: 100%; max-height: 100%;\" src='../static/human_exp_images/task_pos_shape_1/01_3.png' class='correct-choice'></img></div>\n\n        </div>","response":null,"trial_type":"html-keyboard-response","trial_index":29,"time_elapsed":415189,"internal_node_id":"0.0-8.0-2.1"},{"rt":88946,"response":1,"all_choices":["../static/human_exp_images/task_pos_shape_1/02_0.png","../static/human_exp_images/task_pos_shape_1/02_3.png","../static/human_exp_images/task_pos_shape_1/02_1.png","../static/human_exp_images/task_pos_shape_1/02_2.png"],"task":"response","correct_response":1,"shuffled_array":[0,3,1,2],"trial_type":"image-click","trial_index":30,"time_elapsed":504136,"internal_node_id":"0.0-8.0-0.2","mouse_tracking_data":[{"x":908,"y":550,"t":87832,"event":"mousemove"},{"x":918,"y":536,"t":87833,"event":"mousemove"},{"x":952,"y":508,"t":87840,"event":"mousemove"},{"x":963,"y":497,"t":87842,"event":"mousemove"},{"x":981,"y":479,"t":87851,"event":"mousemove"},{"x":991,"y":473,"t":87855,"event":"mousemove"},{"x":1003,"y":460,"t":87859,"event":"mousemove"},{"x":1013,"y":450,"t":87860,"event":"mousemove"},{"x":1032,"y":431,"t":87876,"event":"mousemove"},{"x":1055,"y":400,"t":87894,"event":"mousemove"},{"x":1065,"y":387,"t":87910,"event":"mousemove"},{"x":1069,"y":380,"t":87927,"event":"mousemove"},{"x":1069,"y":379,"t":88124,"event":"mousemove"},{"x":1069,"y":377,"t":88160,"event":"mousemove"},{"x":1069,"y":376,"t":88189,"event":"mousemove"},{"x":1069,"y":372,"t":88222,"event":"mousemove"},{"x":1069,"y":368,"t":88233,"event":"mousemove"},{"x":1069,"y":366,"t":88236,"event":"mousemove"},{"x":1069,"y":360,"t":88242,"event":"mousemove"},{"x":1069,"y":357,"t":88246,"event":"mousemove"},{"x":1069,"y":352,"t":88251,"event":"mousemove"},{"x":1069,"y":349,"t":88252,"event":"mousemove"},{"x":1069,"y":341,"t":88268,"event":"mousemove"},{"x":1071,"y":327,"t":88285,"event":"mousemove"},{"x":1073,"y":314,"t":88302,"event":"mousemove"},{"x":1073,"y":301,"t":88318,"event":"mousemove"},{"x":1077,"y":286,"t":88334,"event":"mousemove"},{"x":1082,"y":262,"t":88352,"event":"mousemove"},{"x":1085,"y":252,"t":88369,"event":"mousemove"},{"x":1090,"y":237,"t":88385,"event":"mousemove"},{"x":1092,"y":229,"t":88402,"event":"mousemove"},{"x":1092,"y":226,"t":88418,"event":"mousemove"},{"x":1092,"y":225,"t":88436,"event":"mousemove"},{"x":1092,"y":224,"t":88462,"event":"mousemove"},{"x":1092,"y":222,"t":88470,"event":"mousemove"},{"x":1093,"y":218,"t":88485,"event":"mousemove"},{"x":1093,"y":211,"t":88501,"event":"mousemove"},{"x":1095,"y":206,"t":88518,"event":"mousemove"},{"x":1096,"y":204,"t":88535,"event":"mousemove"},{"x":1098,"y":203,"t":88552,"event":"mousemove"},{"x":1098,"y":202,"t":88568,"event":"mousemove"},{"x":1098,"y":200,"t":88688,"event":"mousemove"},{"x":1098,"y":198,"t":88697,"event":"mousemove"},{"x":1098,"y":197,"t":88707,"event":"mousemove"},{"x":1099,"y":197,"t":88710,"event":"mousemove"},{"x":1101,"y":193,"t":88726,"event":"mousemove"},{"x":1101,"y":191,"t":88743,"event":"mousemove"},{"x":1101,"y":189,"t":88760,"event":"mousemove"},{"x":1103,"y":189,"t":88777,"event":"mousemove"},{"x":1103,"y":187,"t":88816,"event":"mousemove"}],"mouse_tracking_targets":{},"correct":true},{"rt":1783,"stimulus":"<p>How confident are you about your choice ?</p>","slider_start":50,"response":81,"trial_type":"html-slider-response","trial_index":31,"time_elapsed":505922,"internal_node_id":"0.0-8.0-1.2"},{"rt":null,"stimulus":"\n        <div id='jspsych-image' style='position: relative; width: min(80vw, 80vh); height: min(80vw, 80vh);'>\n                \n                <div style='position: absolute; top: 40%; left: 30%; bottom: 40%; right: 30%;'><h1 style='font-size: 60px; color: green;'>Correct!</h1></div>\n                \n                <div class='jspsych-image' id='jspsych-image-0' data-choice='0' style='top: 0;     left: 0;'><img style=\"max-width: 100%; max-height: 100%;\" src='../static/human_exp_images/task_pos_shape_1/02_0.png' class=''></img></div>\n                <div class='jspsych-image' id='jspsych-image-1' data-choice='1' style='top: 0;     right: 0;'><img style=\"max-width: 100%; max-height: 100%;\" src='../static/human_exp_images/task_pos_shape_1/02_3.png' class='correct-choice'></img></div>\n                <div class='jspsych-image' id='jspsych-image-2' data-choice='2' style='bottom: 0;  left: 0;'><img style=\"max-width: 100%; max-height: 100%;\" src='../static/human_exp_images/task_pos_shape_1/02_1.png' class=''></img></div>\n                <div class='jspsych-image' id='jspsych-image-3' data-choice='3' style='bottom: 0;  right: 0;'><img style=\"max-width: 100%; max-height: 100%;\" src='../static/human_exp_images/task_pos_shape_1/02_2.png' class=''></img></div>\n\n        </div>","response":null,"trial_type":"html-keyboard-response","trial_index":32,"time_elapsed":507425,"internal_node_id":"0.0-8.0-2.2"},{"rt":2226,"stimulus":"<h1 style='font-size: 60px'>New Rule!</h1> <p>Press any key to begin.</p>","response":" ","trial_type":"html-keyboard-response","trial_index":33,"time_elapsed":509653,"internal_node_id":"0.0-9.0"},{"rt":12545,"response":1,"all_choices":["../static/human_exp_images/task_shape_color_3/00_1.png","../static/human_exp_images/task_shape_color_3/00_3.png","../static/human_exp_images/task_shape_color_3/00_2.png","../static/human_exp_images/task_shape_color_3/00_0.png"],"task":"response","correct_response":1,"shuffled_array":[1,3,2,0],"trial_type":"image-click","trial_index":34,"time_elapsed":522199,"internal_node_id":"0.0-10.0-0.0","mouse_tracking_data":[{"x":889,"y":553,"t":11665,"event":"mousemove"},{"x":889,"y":552,"t":11673,"event":"mousemove"},{"x":889,"y":550,"t":11674,"event":"mousemove"},{"x":889,"y":537,"t":11691,"event":"mousemove"},{"x":902,"y":520,"t":11708,"event":"mousemove"},{"x":949,"y":461,"t":11723,"event":"mousemove"},{"x":1003,"y":377,"t":11740,"event":"mousemove"},{"x":1062,"y":308,"t":11757,"event":"mousemove"},{"x":1108,"y":226,"t":11774,"event":"mousemove"},{"x":1128,"y":186,"t":11791,"event":"mousemove"},{"x":1146,"y":150,"t":11807,"event":"mousemove"},{"x":1152,"y":135,"t":11824,"event":"mousemove"},{"x":1163,"y":116,"t":11841,"event":"mousemove"},{"x":1167,"y":95,"t":11857,"event":"mousemove"},{"x":1175,"y":83,"t":11873,"event":"mousemove"},{"x":1181,"y":71,"t":11891,"event":"mousemove"},{"x":1184,"y":66,"t":11908,"event":"mousemove"},{"x":1187,"y":62,"t":11924,"event":"mousemove"},{"x":1195,"y":58,"t":11942,"event":"mousemove"},{"x":1196,"y":55,"t":11957,"event":"mousemove"},{"x":1198,"y":55,"t":11974,"event":"mousemove"},{"x":1194,"y":61,"t":12146,"event":"mousemove"},{"x":1179,"y":79,"t":12157,"event":"mousemove"},{"x":1163,"y":95,"t":12174,"event":"mousemove"},{"x":1160,"y":98,"t":12191,"event":"mousemove"},{"x":1154,"y":103,"t":12207,"event":"mousemove"},{"x":1152,"y":105,"t":12334,"event":"mousemove"},{"x":1152,"y":106,"t":12344,"event":"mousemove"},{"x":1147,"y":112,"t":12358,"event":"mousemove"},{"x":1144,"y":116,"t":12374,"event":"mousemove"},{"x":1141,"y":117,"t":12390,"event":"mousemove"},{"x":1139,"y":119,"t":12408,"event":"mousemove"}],"mouse_tracking_targets":{},"correct":true},{"rt":2516,"stimulus":"<p>How confident are you about your choice ?</p>","slider_start":50,"response":73,"trial_type":"html-slider-response","trial_index":35,"time_elapsed":524716,"internal_node_id":"0.0-10.0-1.0"},{"rt":null,"stimulus":"\n        <div id='jspsych-image' style='position: relative; width: min(80vw, 80vh); height: min(80vw, 80vh);'>\n                \n                <div style='position: absolute; top: 40%; left: 30%; bottom: 40%; right: 30%;'><h1 style='font-size: 60px; color: green;'>Correct!</h1></div>\n                \n                <div class='jspsych-image' id='jspsych-image-0' data-choice='0' style='top: 0;     left: 0;'><img style=\"max-width: 100%; max-height: 100%;\" src='../static/human_exp_images/task_shape_color_3/00_1.png' class=''></img></div>\n                <div class='jspsych-image' id='jspsych-image-1' data-choice='1' style='top: 0;     right: 0;'><img style=\"max-width: 100%; max-height: 100%;\" src='../static/human_exp_images/task_shape_color_3/00_3.png' class='correct-choice'></img></div>\n                <div class='jspsych-image' id='jspsych-image-2' data-choice='2' style='bottom: 0;  left: 0;'><img style=\"max-width: 100%; max-height: 100%;\" src='../static/human_exp_images/task_shape_color_3/00_2.png' class=''></img></div>\n                <div class='jspsych-image' id='jspsych-image-3' data-choice='3' style='bottom: 0;  right: 0;'><img style=\"max-width: 100%; max-height: 100%;\" src='../static/human_exp_images/task_shape_color_3/00_0.png' class=''></img></div>\n\n        </div>","response":null,"trial_type":"html-keyboard-response","trial_index":36,"time_elapsed":526221,"internal_node_id":"0.0-10.0-2.0"},{"rt":28110,"response":0,"all_choices":["../static/human_exp_images/task_shape_color_3/01_0.png","../static/human_exp_images/task_shape_color_3/01_1.png","../static/human_exp_images/task_shape_color_3/01_3.png","../static/human_exp_images/task_shape_color_3/01_2.png"],"task":"response","correct_response":2,"shuffled_array":[0,1,3,2],"trial_type":"image-click","trial_index":37,"time_elapsed":554333,"internal_node_id":"0.0-10.0-0.1","mouse_tracking_data":[{"x":903,"y":546,"t":19645,"event":"mousemove"},{"x":903,"y":545,"t":19654,"event":"mousemove"},{"x":904,"y":544,"t":19657,"event":"mousemove"},{"x":908,"y":540,"t":19662,"event":"mousemove"},{"x":908,"y":540,"t":19667,"event":"mousemove"},{"x":913,"y":535,"t":19671,"event":"mousemove"},{"x":916,"y":534,"t":19672,"event":"mousemove"},{"x":927,"y":521,"t":19688,"event":"mousemove"},{"x":941,"y":507,"t":19706,"event":"mousemove"},{"x":953,"y":493,"t":19721,"event":"mousemove"},{"x":963,"y":479,"t":19739,"event":"mousemove"},{"x":972,"y":469,"t":19754,"event":"mousemove"},{"x":977,"y":465,"t":19772,"event":"mousemove"},{"x":981,"y":462,"t":19788,"event":"mousemove"},{"x":985,"y":457,"t":19805,"event":"mousemove"},{"x":988,"y":454,"t":19821,"event":"mousemove"},{"x":994,"y":451,"t":19839,"event":"mousemove"},{"x":996,"y":446,"t":19856,"event":"mousemove"},{"x":999,"y":445,"t":19871,"event":"mousemove"},{"x":1001,"y":443,"t":19889,"event":"mousemove"},{"x":1003,"y":442,"t":19905,"event":"mousemove"},{"x":1004,"y":440,"t":19922,"event":"mousemove"},{"x":1004,"y":438,"t":20082,"event":"mousemove"},{"x":1004,"y":437,"t":20245,"event":"mousemove"},{"x":1006,"y":437,"t":20255,"event":"mousemove"},{"x":1007,"y":435,"t":20263,"event":"mousemove"},{"x":1009,"y":435,"t":20272,"event":"mousemove"},{"x":1009,"y":434,"t":20280,"event":"mousemove"},{"x":1010,"y":434,"t":20288,"event":"mousemove"},{"x":1012,"y":434,"t":20446,"event":"mousemove"},{"x":1012,"y":432,"t":20491,"event":"mousemove"},{"x":1014,"y":432,"t":20500,"event":"mousemove"},{"x":1015,"y":432,"t":20511,"event":"mousemove"},{"x":1015,"y":431,"t":20519,"event":"mousemove"},{"x":1017,"y":431,"t":20521,"event":"mousemove"},{"x":1017,"y":429,"t":20538,"event":"mousemove"},{"x":1018,"y":429,"t":20555,"event":"mousemove"},{"x":1020,"y":429,"t":20571,"event":"mousemove"},{"x":1021,"y":429,"t":20588,"event":"mousemove"},{"x":1021,"y":427,"t":20604,"event":"mousemove"},{"x":1023,"y":427,"t":20923,"event":"mousemove"},{"x":1024,"y":427,"t":20944,"event":"mousemove"},{"x":1026,"y":427,"t":20952,"event":"mousemove"},{"x":1028,"y":427,"t":20980,"event":"mousemove"},{"x":1029,"y":427,"t":20989,"event":"mousemove"},{"x":1030,"y":427,"t":20998,"event":"mousemove"},{"x":1032,"y":427,"t":21008,"event":"mousemove"},{"x":1034,"y":427,"t":21018,"event":"mousemove"},{"x":1035,"y":427,"t":21033,"event":"mousemove"},{"x":1037,"y":427,"t":21042,"event":"mousemove"},{"x":1039,"y":427,"t":21054,"event":"mousemove"},{"x":1040,"y":427,"t":21064,"event":"mousemove"},{"x":1041,"y":427,"t":21070,"event":"mousemove"},{"x":1043,"y":427,"t":21087,"event":"mousemove"},{"x":1045,"y":427,"t":21105,"event":"mousemove"},{"x":1046,"y":427,"t":21132,"event":"mousemove"},{"x":1048,"y":427,"t":21150,"event":"mousemove"},{"x":1050,"y":427,"t":21204,"event":"mousemove"},{"x":1051,"y":427,"t":21231,"event":"mousemove"},{"x":1052,"y":427,"t":21759,"event":"mousemove"},{"x":1054,"y":427,"t":21776,"event":"mousemove"},{"x":1055,"y":427,"t":21804,"event":"mousemove"},{"x":1057,"y":427,"t":21822,"event":"mousemove"},{"x":1059,"y":427,"t":21848,"event":"mousemove"},{"x":1061,"y":427,"t":21867,"event":"mousemove"},{"x":1062,"y":427,"t":21885,"event":"mousemove"},{"x":1062,"y":426,"t":23032,"event":"mousemove"},{"x":1062,"y":424,"t":23175,"event":"mousemove"},{"x":1063,"y":424,"t":26182,"event":"mousemove"},{"x":1064,"y":424,"t":26190,"event":"mousemove"},{"x":1066,"y":424,"t":26208,"event":"mousemove"},{"x":1068,"y":424,"t":26227,"event":"mousemove"},{"x":1070,"y":424,"t":26244,"event":"mousemove"},{"x":1070,"y":424,"t":26765,"event":"mousemove"},{"x":1070,"y":422,"t":26821,"event":"mousemove"},{"x":1068,"y":422,"t":26833,"event":"mousemove"},{"x":1066,"y":422,"t":26839,"event":"mousemove"},{"x":1064,"y":422,"t":26842,"event":"mousemove"},{"x":1063,"y":422,"t":26848,"event":"mousemove"},{"x":1062,"y":422,"t":26853,"event":"mousemove"},{"x":1060,"y":422,"t":26857,"event":"mousemove"},{"x":1059,"y":422,"t":26867,"event":"mousemove"},{"x":1057,"y":422,"t":26876,"event":"mousemove"},{"x":1055,"y":422,"t":26882,"event":"mousemove"},{"x":1053,"y":422,"t":26900,"event":"mousemove"},{"x":1052,"y":420,"t":26910,"event":"mousemove"},{"x":1049,"y":420,"t":26919,"event":"mousemove"},{"x":1048,"y":418,"t":26922,"event":"mousemove"},{"x":1043,"y":417,"t":26928,"event":"mousemove"},{"x":1040,"y":417,"t":26933,"event":"mousemove"},{"x":1033,"y":415,"t":26937,"event":"mousemove"},{"x":1029,"y":413,"t":26938,"event":"mousemove"},{"x":1011,"y":406,"t":26955,"event":"mousemove"},{"x":977,"y":391,"t":26971,"event":"mousemove"},{"x":953,"y":380,"t":26987,"event":"mousemove"},{"x":933,"y":369,"t":27005,"event":"mousemove"},{"x":924,"y":361,"t":27021,"event":"mousemove"},{"x":922,"y":361,"t":27037,"event":"mousemove"},{"x":922,"y":363,"t":27237,"event":"mousemove"},{"x":922,"y":365,"t":27245,"event":"mousemove"},{"x":922,"y":366,"t":27247,"event":"mousemove"},{"x":922,"y":368,"t":27252,"event":"mousemove"},{"x":922,"y":369,"t":27252,"event":"mousemove"},{"x":921,"y":369,"t":27290,"event":"mousemove"},{"x":918,"y":369,"t":27291,"event":"mousemove"},{"x":891,"y":360,"t":27307,"event":"mousemove"},{"x":854,"y":317,"t":27324,"event":"mousemove"},{"x":830,"y":287,"t":27340,"event":"mousemove"},{"x":805,"y":262,"t":27357,"event":"mousemove"},{"x":788,"y":249,"t":27374,"event":"mousemove"},{"x":776,"y":240,"t":27390,"event":"mousemove"},{"x":766,"y":234,"t":27407,"event":"mousemove"},{"x":759,"y":226,"t":27424,"event":"mousemove"},{"x":756,"y":225,"t":27441,"event":"mousemove"},{"x":754,"y":223,"t":27457,"event":"mousemove"},{"x":754,"y":223,"t":27535,"event":"mousemove"},{"x":752,"y":223,"t":27627,"event":"mousemove"},{"x":750,"y":223,"t":27636,"event":"mousemove"},{"x":748,"y":223,"t":27638,"event":"mousemove"},{"x":743,"y":220,"t":27654,"event":"mousemove"},{"x":739,"y":218,"t":27671,"event":"mousemove"},{"x":738,"y":218,"t":27687,"event":"mousemove"},{"x":738,"y":216,"t":27719,"event":"mousemove"},{"x":734,"y":215,"t":27726,"event":"mousemove"},{"x":734,"y":214,"t":27727,"event":"mousemove"},{"x":728,"y":209,"t":27744,"event":"mousemove"},{"x":714,"y":198,"t":27761,"event":"mousemove"},{"x":703,"y":188,"t":27778,"event":"mousemove"},{"x":693,"y":182,"t":27794,"event":"mousemove"},{"x":686,"y":179,"t":27810,"event":"mousemove"},{"x":681,"y":175,"t":27827,"event":"mousemove"},{"x":677,"y":175,"t":27843,"event":"mousemove"},{"x":677,"y":175,"t":27864,"event":"mousemove"},{"x":675,"y":174,"t":27872,"event":"mousemove"},{"x":673,"y":174,"t":27882,"event":"mousemove"},{"x":671,"y":174,"t":27884,"event":"mousemove"},{"x":668,"y":172,"t":27888,"event":"mousemove"},{"x":666,"y":172,"t":27897,"event":"mousemove"},{"x":666,"y":171,"t":27907,"event":"mousemove"},{"x":664,"y":171,"t":27918,"event":"mousemove"},{"x":662,"y":171,"t":27945,"event":"mousemove"},{"x":660,"y":171,"t":28042,"event":"mousemove"}],"mouse_tracking_targets":{},"correct":false},{"rt":2116,"stimulus":"<p>How confident are you about your choice ?</p>","slider_start":50,"response":77,"trial_type":"html-slider-response","trial_index":38,"time_elapsed":556452,"internal_node_id":"0.0-10.0-1.1"},{"rt":null,"stimulus":"\n        <div id='jspsych-image' style='position: relative; width: min(80vw, 80vh); height: min(80vw, 80vh);'>\n                \n                <div style='position: absolute; top: 40%; left: 30%; bottom: 40%; right: 30%;'><h1 style='font-size: 60px; color: red'>Wrong</h1></div>\n                \n                <div class='jspsych-image' id='jspsych-image-0' data-choice='0' style='top: 0;     left: 0;'><img style=\"max-width: 100%; max-height: 100%;\" src='../static/human_exp_images/task_shape_color_3/01_0.png' class='wrong-choice'></img></div>\n                <div class='jspsych-image' id='jspsych-image-1' data-choice='1' style='top: 0;     right: 0;'><img style=\"max-width: 100%; max-height: 100%;\" src='../static/human_exp_images/task_shape_color_3/01_1.png' class=''></img></div>\n                <div class='jspsych-image' id='jspsych-image-2' data-choice='2' style='bottom: 0;  left: 0;'><img style=\"max-width: 100%; max-height: 100%;\" src='../static/human_exp_images/task_shape_color_3/01_3.png' class='correct-choice'></img></div>\n                <div class='jspsych-image' id='jspsych-image-3' data-choice='3' style='bottom: 0;  right: 0;'><img style=\"max-width: 100%; max-height: 100%;\" src='../static/human_exp_images/task_shape_color_3/01_2.png' class=''></img></div>\n\n        </div>","response":null,"trial_type":"html-keyboard-response","trial_index":39,"time_elapsed":558955,"internal_node_id":"0.0-10.0-2.1"},{"rt":12067,"response":2,"all_choices":["../static/human_exp_images/task_shape_color_3/02_0.png","../static/human_exp_images/task_shape_color_3/02_2.png","../static/human_exp_images/task_shape_color_3/02_3.png","../static/human_exp_images/task_shape_color_3/02_1.png"],"task":"response","correct_response":2,"shuffled_array":[0,2,3,1],"trial_type":"image-click","trial_index":40,"time_elapsed":571023,"internal_node_id":"0.0-10.0-0.2","mouse_tracking_data":[{"x":880,"y":540,"t":2590,"event":"mousemove"},{"x":880,"y":538,"t":2601,"event":"mousemove"},{"x":880,"y":537,"t":2611,"event":"mousemove"},{"x":880,"y":535,"t":2617,"event":"mousemove"},{"x":880,"y":534,"t":2626,"event":"mousemove"},{"x":880,"y":532,"t":2628,"event":"mousemove"},{"x":880,"y":531,"t":2644,"event":"mousemove"},{"x":880,"y":529,"t":2661,"event":"mousemove"},{"x":880,"y":527,"t":2680,"event":"mousemove"},{"x":880,"y":526,"t":2740,"event":"mousemove"},{"x":880,"y":524,"t":2832,"event":"mousemove"},{"x":880,"y":523,"t":2840,"event":"mousemove"},{"x":880,"y":521,"t":2849,"event":"mousemove"},{"x":882,"y":521,"t":2850,"event":"mousemove"},{"x":883,"y":518,"t":2866,"event":"mousemove"},{"x":883,"y":515,"t":2883,"event":"mousemove"},{"x":885,"y":513,"t":2899,"event":"mousemove"},{"x":885,"y":512,"t":2917,"event":"mousemove"},{"x":885,"y":510,"t":2932,"event":"mousemove"},{"x":886,"y":510,"t":2982,"event":"mousemove"},{"x":887,"y":510,"t":3185,"event":"mousemove"},{"x":889,"y":509,"t":3194,"event":"mousemove"},{"x":891,"y":507,"t":3203,"event":"mousemove"},{"x":892,"y":505,"t":3203,"event":"mousemove"},{"x":894,"y":505,"t":3212,"event":"mousemove"},{"x":896,"y":505,"t":3213,"event":"mousemove"},{"x":896,"y":504,"t":3221,"event":"mousemove"},{"x":897,"y":504,"t":3224,"event":"mousemove"},{"x":898,"y":502,"t":3230,"event":"mousemove"},{"x":900,"y":502,"t":3242,"event":"mousemove"},{"x":900,"y":501,"t":3250,"event":"mousemove"},{"x":902,"y":501,"t":3259,"event":"mousemove"},{"x":903,"y":501,"t":3278,"event":"mousemove"},{"x":905,"y":501,"t":3475,"event":"mousemove"},{"x":905,"y":500,"t":3956,"event":"mousemove"},{"x":905,"y":498,"t":4018,"event":"mousemove"},{"x":905,"y":496,"t":4054,"event":"mousemove"},{"x":905,"y":495,"t":4116,"event":"mousemove"},{"x":905,"y":493,"t":11292,"event":"mousemove"},{"x":900,"y":493,"t":11321,"event":"mousemove"},{"x":897,"y":493,"t":11321,"event":"mousemove"},{"x":875,"y":493,"t":11338,"event":"mousemove"},{"x":825,"y":499,"t":11355,"event":"mousemove"},{"x":780,"y":521,"t":11371,"event":"mousemove"},{"x":755,"y":528,"t":11389,"event":"mousemove"},{"x":747,"y":530,"t":11405,"event":"mousemove"},{"x":747,"y":532,"t":11422,"event":"mousemove"},{"x":745,"y":532,"t":11448,"event":"mousemove"},{"x":743,"y":532,"t":11475,"event":"mousemove"},{"x":732,"y":534,"t":11489,"event":"mousemove"},{"x":716,"y":536,"t":11506,"event":"mousemove"},{"x":708,"y":538,"t":11521,"event":"mousemove"},{"x":707,"y":540,"t":11539,"event":"mousemove"},{"x":705,"y":540,"t":11554,"event":"mousemove"},{"x":705,"y":541,"t":11582,"event":"mousemove"}],"mouse_tracking_targets":{},"correct":true},{"rt":3044,"stimulus":"<p>How confident are you about your choice ?</p>","slider_start":50,"response":75,"trial_type":"html-slider-response","trial_index":41,"time_elapsed":574068,"internal_node_id":"0.0-10.0-1.2"},{"rt":null,"stimulus":"\n        <div id='jspsych-image' style='position: relative; width: min(80vw, 80vh); height: min(80vw, 80vh);'>\n                \n                <div style='position: absolute; top: 40%; left: 30%; bottom: 40%; right: 30%;'><h1 style='font-size: 60px; color: green;'>Correct!</h1></div>\n                \n                <div class='jspsych-image' id='jspsych-image-0' data-choice='0' style='top: 0;     left: 0;'><img style=\"max-width: 100%; max-height: 100%;\" src='../static/human_exp_images/task_shape_color_3/02_0.png' class=''></img></div>\n                <div class='jspsych-image' id='jspsych-image-1' data-choice='1' style='top: 0;     right: 0;'><img style=\"max-width: 100%; max-height: 100%;\" src='../static/human_exp_images/task_shape_color_3/02_2.png' class=''></img></div>\n                <div class='jspsych-image' id='jspsych-image-2' data-choice='2' style='bottom: 0;  left: 0;'><img style=\"max-width: 100%; max-height: 100%;\" src='../static/human_exp_images/task_shape_color_3/02_3.png' class='correct-choice'></img></div>\n                <div class='jspsych-image' id='jspsych-image-3' data-choice='3' style='bottom: 0;  right: 0;'><img style=\"max-width: 100%; max-height: 100%;\" src='../static/human_exp_images/task_shape_color_3/02_1.png' class=''></img></div>\n\n        </div>","response":null,"trial_type":"html-keyboard-response","trial_index":42,"time_elapsed":575572,"internal_node_id":"0.0-10.0-2.2"},{"rt":3595,"stimulus":"<h1 style='font-size: 60px'>New Rule!</h1> <p>Press any key to begin.</p>","response":" ","trial_type":"html-keyboard-response","trial_index":43,"time_elapsed":579167,"internal_node_id":"0.0-11.0"},{"rt":26579,"response":3,"all_choices":["../static/human_exp_images/task_pos_size_1/00_0.png","../static/human_exp_images/task_pos_size_1/00_2.png","../static/human_exp_images/task_pos_size_1/00_1.png","../static/human_exp_images/task_pos_size_1/00_3.png"],"task":"response","correct_response":3,"shuffled_array":[0,2,1,3],"trial_type":"image-click","trial_index":44,"time_elapsed":605749,"internal_node_id":"0.0-12.0-0.0","mouse_tracking_data":[{"x":867,"y":400,"t":24837,"event":"mousemove"},{"x":868,"y":400,"t":24837,"event":"mousemove"},{"x":875,"y":400,"t":24853,"event":"mousemove"},{"x":886,"y":400,"t":24871,"event":"mousemove"},{"x":895,"y":400,"t":24886,"event":"mousemove"},{"x":906,"y":400,"t":24904,"event":"mousemove"},{"x":919,"y":403,"t":24920,"event":"mousemove"},{"x":930,"y":410,"t":24937,"event":"mousemove"},{"x":939,"y":413,"t":24953,"event":"mousemove"},{"x":948,"y":419,"t":24971,"event":"mousemove"},{"x":957,"y":425,"t":24987,"event":"mousemove"},{"x":963,"y":432,"t":25003,"event":"mousemove"},{"x":968,"y":436,"t":25020,"event":"mousemove"},{"x":971,"y":441,"t":25037,"event":"mousemove"},{"x":973,"y":443,"t":25054,"event":"mousemove"},{"x":974,"y":446,"t":25070,"event":"mousemove"},{"x":976,"y":447,"t":25087,"event":"mousemove"},{"x":977,"y":449,"t":25104,"event":"mousemove"},{"x":979,"y":450,"t":25121,"event":"mousemove"},{"x":981,"y":450,"t":25194,"event":"mousemove"},{"x":982,"y":452,"t":25212,"event":"mousemove"},{"x":984,"y":454,"t":25220,"event":"mousemove"},{"x":985,"y":455,"t":25229,"event":"mousemove"},{"x":988,"y":458,"t":25238,"event":"mousemove"},{"x":992,"y":461,"t":25247,"event":"mousemove"},{"x":993,"y":463,"t":25250,"event":"mousemove"},{"x":995,"y":466,"t":25256,"event":"mousemove"},{"x":996,"y":468,"t":25260,"event":"mousemove"},{"x":999,"y":470,"t":25265,"event":"mousemove"},{"x":1001,"y":474,"t":25266,"event":"mousemove"},{"x":1003,"y":479,"t":25282,"event":"mousemove"},{"x":1009,"y":494,"t":25299,"event":"mousemove"},{"x":1012,"y":512,"t":25315,"event":"mousemove"},{"x":1014,"y":526,"t":25333,"event":"mousemove"},{"x":1015,"y":537,"t":25350,"event":"mousemove"},{"x":1017,"y":547,"t":25365,"event":"mousemove"},{"x":1020,"y":554,"t":25382,"event":"mousemove"},{"x":1021,"y":560,"t":25399,"event":"mousemove"},{"x":1023,"y":565,"t":25416,"event":"mousemove"},{"x":1025,"y":566,"t":25432,"event":"mousemove"},{"x":1025,"y":567,"t":25449,"event":"mousemove"},{"x":1026,"y":567,"t":25465,"event":"mousemove"},{"x":1026,"y":570,"t":25483,"event":"mousemove"},{"x":1029,"y":574,"t":25499,"event":"mousemove"},{"x":1032,"y":578,"t":25516,"event":"mousemove"},{"x":1034,"y":581,"t":25533,"event":"mousemove"},{"x":1036,"y":585,"t":25549,"event":"mousemove"},{"x":1037,"y":585,"t":25566,"event":"mousemove"},{"x":1037,"y":587,"t":25583,"event":"mousemove"},{"x":1039,"y":588,"t":25600,"event":"mousemove"},{"x":1039,"y":589,"t":25616,"event":"mousemove"},{"x":1041,"y":589,"t":25633,"event":"mousemove"},{"x":1043,"y":591,"t":25649,"event":"mousemove"},{"x":1045,"y":592,"t":25666,"event":"mousemove"},{"x":1048,"y":594,"t":25682,"event":"mousemove"},{"x":1050,"y":596,"t":25700,"event":"mousemove"},{"x":1050,"y":598,"t":25719,"event":"mousemove"},{"x":1051,"y":598,"t":25728,"event":"mousemove"},{"x":1052,"y":598,"t":25746,"event":"mousemove"},{"x":1054,"y":598,"t":25773,"event":"mousemove"},{"x":1056,"y":599,"t":25819,"event":"mousemove"},{"x":1058,"y":599,"t":25854,"event":"mousemove"},{"x":1058,"y":600,"t":25863,"event":"mousemove"},{"x":1059,"y":600,"t":25881,"event":"mousemove"},{"x":1061,"y":600,"t":25891,"event":"mousemove"},{"x":1062,"y":600,"t":25900,"event":"mousemove"},{"x":1063,"y":600,"t":25919,"event":"mousemove"},{"x":1065,"y":600,"t":25926,"event":"mousemove"},{"x":1067,"y":600,"t":25936,"event":"mousemove"},{"x":1069,"y":600,"t":25946,"event":"mousemove"},{"x":1070,"y":600,"t":25952,"event":"mousemove"},{"x":1072,"y":600,"t":25967,"event":"mousemove"},{"x":1073,"y":600,"t":25972,"event":"mousemove"},{"x":1074,"y":600,"t":25989,"event":"mousemove"},{"x":1076,"y":600,"t":25998,"event":"mousemove"},{"x":1078,"y":600,"t":26015,"event":"mousemove"}],"mouse_tracking_targets":{},"correct":true},{"rt":2395,"stimulus":"<p>How confident are you about your choice ?</p>","slider_start":50,"response":72,"trial_type":"html-slider-response","trial_index":45,"time_elapsed":608146,"internal_node_id":"0.0-12.0-1.0"},{"rt":null,"stimulus":"\n        <div id='jspsych-image' style='position: relative; width: min(80vw, 80vh); height: min(80vw, 80vh);'>\n                \n                <div style='position: absolute; top: 40%; left: 30%; bottom: 40%; right: 30%;'><h1 style='font-size: 60px; color: green;'>Correct!</h1></div>\n                \n                <div class='jspsych-image' id='jspsych-image-0' data-choice='0' style='top: 0;     left: 0;'><img style=\"max-width: 100%; max-height: 100%;\" src='../static/human_exp_images/task_pos_size_1/00_0.png' class=''></img></div>\n                <div class='jspsych-image' id='jspsych-image-1' data-choice='1' style='top: 0;     right: 0;'><img style=\"max-width: 100%; max-height: 100%;\" src='../static/human_exp_images/task_pos_size_1/00_2.png' class=''></img></div>\n                <div class='jspsych-image' id='jspsych-image-2' data-choice='2' style='bottom: 0;  left: 0;'><img style=\"max-width: 100%; max-height: 100%;\" src='../static/human_exp_images/task_pos_size_1/00_1.png' class=''></img></div>\n                <div class='jspsych-image' id='jspsych-image-3' data-choice='3' style='bottom: 0;  right: 0;'><img style=\"max-width: 100%; max-height: 100%;\" src='../static/human_exp_images/task_pos_size_1/00_3.png' class='correct-choice'></img></div>\n\n        </div>","response":null,"trial_type":"html-keyboard-response","trial_index":46,"time_elapsed":609649,"internal_node_id":"0.0-12.0-2.0"},{"rt":7840,"response":3,"all_choices":["../static/human_exp_images/task_pos_size_1/01_1.png","../static/human_exp_images/task_pos_size_1/01_0.png","../static/human_exp_images/task_pos_size_1/01_2.png","../static/human_exp_images/task_pos_size_1/01_3.png"],"task":"response","correct_response":3,"shuffled_array":[1,0,2,3],"trial_type":"image-click","trial_index":47,"time_elapsed":617491,"internal_node_id":"0.0-12.0-0.1","mouse_tracking_data":[{"x":867,"y":556,"t":6966,"event":"mousemove"},{"x":871,"y":556,"t":6968,"event":"mousemove"},{"x":882,"y":556,"t":6984,"event":"mousemove"},{"x":894,"y":556,"t":7001,"event":"mousemove"},{"x":902,"y":556,"t":7017,"event":"mousemove"},{"x":914,"y":556,"t":7035,"event":"mousemove"},{"x":925,"y":556,"t":7051,"event":"mousemove"},{"x":935,"y":556,"t":7067,"event":"mousemove"},{"x":944,"y":556,"t":7084,"event":"mousemove"},{"x":952,"y":558,"t":7101,"event":"mousemove"},{"x":960,"y":559,"t":7118,"event":"mousemove"},{"x":966,"y":563,"t":7135,"event":"mousemove"},{"x":974,"y":566,"t":7151,"event":"mousemove"},{"x":979,"y":569,"t":7167,"event":"mousemove"},{"x":982,"y":570,"t":7185,"event":"mousemove"},{"x":985,"y":572,"t":7201,"event":"mousemove"},{"x":988,"y":572,"t":7218,"event":"mousemove"},{"x":991,"y":574,"t":7234,"event":"mousemove"},{"x":995,"y":574,"t":7251,"event":"mousemove"},{"x":999,"y":574,"t":7268,"event":"mousemove"},{"x":1004,"y":576,"t":7285,"event":"mousemove"},{"x":1011,"y":577,"t":7301,"event":"mousemove"},{"x":1022,"y":578,"t":7318,"event":"mousemove"},{"x":1033,"y":580,"t":7334,"event":"mousemove"},{"x":1041,"y":581,"t":7351,"event":"mousemove"},{"x":1052,"y":583,"t":7369,"event":"mousemove"},{"x":1061,"y":585,"t":7384,"event":"mousemove"}],"mouse_tracking_targets":{},"correct":true},{"rt":2516,"stimulus":"<p>How confident are you about your choice ?</p>","slider_start":50,"response":85,"trial_type":"html-slider-response","trial_index":48,"time_elapsed":620007,"internal_node_id":"0.0-12.0-1.1"},{"rt":null,"stimulus":"\n        <div id='jspsych-image' style='position: relative; width: min(80vw, 80vh); height: min(80vw, 80vh);'>\n                \n                <div style='position: absolute; top: 40%; left: 30%; bottom: 40%; right: 30%;'><h1 style='font-size: 60px; color: green;'>Correct!</h1></div>\n                \n                <div class='jspsych-image' id='jspsych-image-0' data-choice='0' style='top: 0;     left: 0;'><img style=\"max-width: 100%; max-height: 100%;\" src='../static/human_exp_images/task_pos_size_1/01_1.png' class=''></img></div>\n                <div class='jspsych-image' id='jspsych-image-1' data-choice='1' style='top: 0;     right: 0;'><img style=\"max-width: 100%; max-height: 100%;\" src='../static/human_exp_images/task_pos_size_1/01_0.png' class=''></img></div>\n                <div class='jspsych-image' id='jspsych-image-2' data-choice='2' style='bottom: 0;  left: 0;'><img style=\"max-width: 100%; max-height: 100%;\" src='../static/human_exp_images/task_pos_size_1/01_2.png' class=''></img></div>\n                <div class='jspsych-image' id='jspsych-image-3' data-choice='3' style='bottom: 0;  right: 0;'><img style=\"max-width: 100%; max-height: 100%;\" src='../static/human_exp_images/task_pos_size_1/01_3.png' class='correct-choice'></img></div>\n\n        </div>","response":null,"trial_type":"html-keyboard-response","trial_index":49,"time_elapsed":621512,"internal_node_id":"0.0-12.0-2.1"},{"rt":23865,"response":1,"all_choices":["../static/human_exp_images/task_pos_size_1/02_1.png","../static/human_exp_images/task_pos_size_1/02_3.png","../static/human_exp_images/task_pos_size_1/02_0.png","../static/human_exp_images/task_pos_size_1/02_2.png"],"task":"response","correct_response":1,"shuffled_array":[1,3,0,2],"trial_type":"image-click","trial_index":50,"time_elapsed":645380,"internal_node_id":"0.0-12.0-0.2","mouse_tracking_data":[{"x":192,"y":240,"t":18071,"event":"mousemove"},{"x":382,"y":219,"t":18088,"event":"mousemove"},{"x":528,"y":208,"t":18103,"event":"mousemove"},{"x":625,"y":204,"t":18121,"event":"mousemove"},{"x":717,"y":204,"t":18138,"event":"mousemove"},{"x":743,"y":200,"t":18154,"event":"mousemove"},{"x":785,"y":194,"t":18171,"event":"mousemove"},{"x":816,"y":187,"t":18188,"event":"mousemove"},{"x":835,"y":176,"t":18205,"event":"mousemove"},{"x":853,"y":167,"t":18220,"event":"mousemove"},{"x":867,"y":158,"t":18238,"event":"mousemove"},{"x":873,"y":148,"t":18254,"event":"mousemove"},{"x":871,"y":148,"t":18477,"event":"mousemove"},{"x":875,"y":148,"t":18536,"event":"mousemove"},{"x":879,"y":148,"t":18537,"event":"mousemove"},{"x":895,"y":148,"t":18553,"event":"mousemove"},{"x":926,"y":148,"t":18570,"event":"mousemove"},{"x":949,"y":148,"t":18586,"event":"mousemove"},{"x":957,"y":148,"t":18603,"event":"mousemove"},{"x":960,"y":148,"t":18619,"event":"mousemove"},{"x":962,"y":148,"t":18637,"event":"mousemove"},{"x":963,"y":148,"t":21343,"event":"mousemove"},{"x":964,"y":148,"t":23230,"event":"mousemove"},{"x":965,"y":148,"t":23241,"event":"mousemove"},{"x":967,"y":148,"t":23252,"event":"mousemove"},{"x":969,"y":148,"t":23267,"event":"mousemove"},{"x":971,"y":148,"t":23276,"event":"mousemove"},{"x":972,"y":148,"t":23277,"event":"mousemove"},{"x":974,"y":148,"t":23293,"event":"mousemove"},{"x":982,"y":148,"t":23311,"event":"mousemove"},{"x":994,"y":148,"t":23327,"event":"mousemove"},{"x":1008,"y":148,"t":23344,"event":"mousemove"},{"x":1029,"y":148,"t":23360,"event":"mousemove"},{"x":1046,"y":148,"t":23376,"event":"mousemove"},{"x":1057,"y":147,"t":23393,"event":"mousemove"},{"x":1064,"y":143,"t":23410,"event":"mousemove"},{"x":1077,"y":140,"t":23427,"event":"mousemove"},{"x":1077,"y":138,"t":23569,"event":"mousemove"}],"mouse_tracking_targets":{},"correct":true},{"rt":1930,"stimulus":"<p>How confident are you about your choice ?</p>","slider_start":50,"response":76,"trial_type":"html-slider-response","trial_index":51,"time_elapsed":647311,"internal_node_id":"0.0-12.0-1.2"},{"rt":null,"stimulus":"\n        <div id='jspsych-image' style='position: relative; width: min(80vw, 80vh); height: min(80vw, 80vh);'>\n                \n                <div style='position: absolute; top: 40%; left: 30%; bottom: 40%; right: 30%;'><h1 style='font-size: 60px; color: green;'>Correct!</h1></div>\n                \n                <div class='jspsych-image' id='jspsych-image-0' data-choice='0' style='top: 0;     left: 0;'><img style=\"max-width: 100%; max-height: 100%;\" src='../static/human_exp_images/task_pos_size_1/02_1.png' class=''></img></div>\n                <div class='jspsych-image' id='jspsych-image-1' data-choice='1' style='top: 0;     right: 0;'><img style=\"max-width: 100%; max-height: 100%;\" src='../static/human_exp_images/task_pos_size_1/02_3.png' class='correct-choice'></img></div>\n                <div class='jspsych-image' id='jspsych-image-2' data-choice='2' style='bottom: 0;  left: 0;'><img style=\"max-width: 100%; max-height: 100%;\" src='../static/human_exp_images/task_pos_size_1/02_0.png' class=''></img></div>\n                <div class='jspsych-image' id='jspsych-image-3' data-choice='3' style='bottom: 0;  right: 0;'><img style=\"max-width: 100%; max-height: 100%;\" src='../static/human_exp_images/task_pos_size_1/02_2.png' class=''></img></div>\n\n        </div>","response":null,"trial_type":"html-keyboard-response","trial_index":52,"time_elapsed":648814,"internal_node_id":"0.0-12.0-2.2"},{"rt":1842,"stimulus":"<h1 style='font-size: 60px'>New Rule!</h1> <p>Press any key to begin.</p>","response":" ","trial_type":"html-keyboard-response","trial_index":53,"time_elapsed":650658,"internal_node_id":"0.0-13.0"},{"rt":15606,"response":1,"all_choices":["../static/human_exp_images/task_color_contact/00_0.png","../static/human_exp_images/task_color_contact/00_3.png","../static/human_exp_images/task_color_contact/00_1.png","../static/human_exp_images/task_color_contact/00_2.png"],"task":"response","correct_response":1,"shuffled_array":[0,3,1,2],"trial_type":"image-click","trial_index":54,"time_elapsed":666266,"internal_node_id":"0.0-14.0-0.0","mouse_tracking_data":[{"x":867,"y":570,"t":14221,"event":"mousemove"},{"x":871,"y":562,"t":14226,"event":"mousemove"},{"x":875,"y":557,"t":14231,"event":"mousemove"},{"x":885,"y":543,"t":14236,"event":"mousemove"},{"x":891,"y":534,"t":14237,"event":"mousemove"},{"x":910,"y":498,"t":14253,"event":"mousemove"},{"x":946,"y":433,"t":14270,"event":"mousemove"},{"x":974,"y":391,"t":14286,"event":"mousemove"},{"x":987,"y":357,"t":14304,"event":"mousemove"},{"x":992,"y":344,"t":14319,"event":"mousemove"},{"x":995,"y":333,"t":14337,"event":"mousemove"},{"x":995,"y":330,"t":14352,"event":"mousemove"},{"x":998,"y":322,"t":14370,"event":"mousemove"},{"x":1001,"y":313,"t":14388,"event":"mousemove"},{"x":1006,"y":302,"t":14403,"event":"mousemove"},{"x":1012,"y":286,"t":14420,"event":"mousemove"},{"x":1018,"y":271,"t":14436,"event":"mousemove"},{"x":1019,"y":265,"t":14453,"event":"mousemove"},{"x":1019,"y":263,"t":14470,"event":"mousemove"},{"x":1019,"y":261,"t":14500,"event":"mousemove"},{"x":1019,"y":260,"t":14510,"event":"mousemove"},{"x":1019,"y":259,"t":14519,"event":"mousemove"},{"x":1019,"y":257,"t":14537,"event":"mousemove"},{"x":1021,"y":252,"t":14553,"event":"mousemove"},{"x":1024,"y":244,"t":14570,"event":"mousemove"},{"x":1024,"y":239,"t":14587,"event":"mousemove"},{"x":1024,"y":238,"t":14603,"event":"mousemove"},{"x":1026,"y":238,"t":14920,"event":"mousemove"},{"x":1027,"y":237,"t":14932,"event":"mousemove"},{"x":1029,"y":237,"t":14938,"event":"mousemove"},{"x":1030,"y":235,"t":14941,"event":"mousemove"},{"x":1033,"y":232,"t":14947,"event":"mousemove"},{"x":1035,"y":232,"t":14952,"event":"mousemove"},{"x":1040,"y":227,"t":14957,"event":"mousemove"},{"x":1041,"y":225,"t":14958,"event":"mousemove"},{"x":1050,"y":219,"t":14974,"event":"mousemove"},{"x":1068,"y":204,"t":14991,"event":"mousemove"},{"x":1091,"y":186,"t":15006,"event":"mousemove"},{"x":1112,"y":167,"t":15023,"event":"mousemove"},{"x":1124,"y":155,"t":15040,"event":"mousemove"},{"x":1138,"y":144,"t":15057,"event":"mousemove"},{"x":1142,"y":140,"t":15074,"event":"mousemove"},{"x":1150,"y":136,"t":15090,"event":"mousemove"},{"x":1153,"y":133,"t":15108,"event":"mousemove"},{"x":1151,"y":133,"t":15277,"event":"mousemove"}],"mouse_tracking_targets":{},"correct":true},{"rt":2661,"stimulus":"<p>How confident are you about your choice ?</p>","slider_start":50,"response":78,"trial_type":"html-slider-response","trial_index":55,"time_elapsed":668929,"internal_node_id":"0.0-14.0-1.0"},{"rt":null,"stimulus":"\n        <div id='jspsych-image' style='position: relative; width: min(80vw, 80vh); height: min(80vw, 80vh);'>\n                \n                <div style='position: absolute; top: 40%; left: 30%; bottom: 40%; right: 30%;'><h1 style='font-size: 60px; color: green;'>Correct!</h1></div>\n                \n                <div class='jspsych-image' id='jspsych-image-0' data-choice='0' style='top: 0;     left: 0;'><img style=\"max-width: 100%; max-height: 100%;\" src='../static/human_exp_images/task_color_contact/00_0.png' class=''></img></div>\n                <div class='jspsych-image' id='jspsych-image-1' data-choice='1' style='top: 0;     right: 0;'><img style=\"max-width: 100%; max-height: 100%;\" src='../static/human_exp_images/task_color_contact/00_3.png' class='correct-choice'></img></div>\n                <div class='jspsych-image' id='jspsych-image-2' data-choice='2' style='bottom: 0;  left: 0;'><img style=\"max-width: 100%; max-height: 100%;\" src='../static/human_exp_images/task_color_contact/00_1.png' class=''></img></div>\n                <div class='jspsych-image' id='jspsych-image-3' data-choice='3' style='bottom: 0;  right: 0;'><img style=\"max-width: 100%; max-height: 100%;\" src='../static/human_exp_images/task_color_contact/00_2.png' class=''></img></div>\n\n        </div>","response":null,"trial_type":"html-keyboard-response","trial_index":56,"time_elapsed":670432,"internal_node_id":"0.0-14.0-2.0"},{"rt":4251,"response":1,"all_choices":["../static/human_exp_images/task_color_contact/01_0.png","../static/human_exp_images/task_color_contact/01_3.png","../static/human_exp_images/task_color_contact/01_2.png","../static/human_exp_images/task_color_contact/01_1.png"],"task":"response","correct_response":1,"shuffled_array":[0,3,2,1],"trial_type":"image-click","trial_index":57,"time_elapsed":674685,"internal_node_id":"0.0-14.0-0.1","mouse_tracking_data":[{"x":869,"y":545,"t":3343,"event":"mousemove"},{"x":871,"y":545,"t":3350,"event":"mousemove"},{"x":872,"y":545,"t":3352,"event":"mousemove"},{"x":875,"y":545,"t":3358,"event":"mousemove"},{"x":876,"y":545,"t":3362,"event":"mousemove"},{"x":882,"y":545,"t":3368,"event":"mousemove"},{"x":883,"y":542,"t":3368,"event":"mousemove"},{"x":896,"y":524,"t":3384,"event":"mousemove"},{"x":932,"y":473,"t":3401,"event":"mousemove"},{"x":962,"y":420,"t":3418,"event":"mousemove"},{"x":983,"y":379,"t":3435,"event":"mousemove"},{"x":996,"y":357,"t":3452,"event":"mousemove"},{"x":999,"y":344,"t":3468,"event":"mousemove"},{"x":1010,"y":324,"t":3485,"event":"mousemove"},{"x":1017,"y":311,"t":3502,"event":"mousemove"},{"x":1023,"y":300,"t":3518,"event":"mousemove"},{"x":1029,"y":292,"t":3534,"event":"mousemove"},{"x":1038,"y":281,"t":3552,"event":"mousemove"},{"x":1044,"y":274,"t":3568,"event":"mousemove"},{"x":1048,"y":268,"t":3585,"event":"mousemove"},{"x":1051,"y":264,"t":3601,"event":"mousemove"},{"x":1053,"y":259,"t":3618,"event":"mousemove"},{"x":1062,"y":250,"t":3635,"event":"mousemove"},{"x":1071,"y":239,"t":3652,"event":"mousemove"},{"x":1082,"y":226,"t":3669,"event":"mousemove"},{"x":1086,"y":222,"t":3685,"event":"mousemove"},{"x":1093,"y":215,"t":3702,"event":"mousemove"},{"x":1096,"y":213,"t":3719,"event":"mousemove"},{"x":1096,"y":211,"t":3741,"event":"mousemove"},{"x":1096,"y":213,"t":3934,"event":"mousemove"},{"x":1096,"y":214,"t":3957,"event":"mousemove"}],"mouse_tracking_targets":{},"correct":true},{"rt":3513,"stimulus":"<p>How confident are you about your choice ?</p>","slider_start":50,"response":75,"trial_type":"html-slider-response","trial_index":58,"time_elapsed":678198,"internal_node_id":"0.0-14.0-1.1"},{"rt":null,"stimulus":"\n        <div id='jspsych-image' style='position: relative; width: min(80vw, 80vh); height: min(80vw, 80vh);'>\n                \n                <div style='position: absolute; top: 40%; left: 30%; bottom: 40%; right: 30%;'><h1 style='font-size: 60px; color: green;'>Correct!</h1></div>\n                \n                <div class='jspsych-image' id='jspsych-image-0' data-choice='0' style='top: 0;     left: 0;'><img style=\"max-width: 100%; max-height: 100%;\" src='../static/human_exp_images/task_color_contact/01_0.png' class=''></img></div>\n                <div class='jspsych-image' id='jspsych-image-1' data-choice='1' style='top: 0;     right: 0;'><img style=\"max-width: 100%; max-height: 100%;\" src='../static/human_exp_images/task_color_contact/01_3.png' class='correct-choice'></img></div>\n                <div class='jspsych-image' id='jspsych-image-2' data-choice='2' style='bottom: 0;  left: 0;'><img style=\"max-width: 100%; max-height: 100%;\" src='../static/human_exp_images/task_color_contact/01_2.png' class=''></img></div>\n                <div class='jspsych-image' id='jspsych-image-3' data-choice='3' style='bottom: 0;  right: 0;'><img style=\"max-width: 100%; max-height: 100%;\" src='../static/human_exp_images/task_color_contact/01_1.png' class=''></img></div>\n\n        </div>","response":null,"trial_type":"html-keyboard-response","trial_index":59,"time_elapsed":679703,"internal_node_id":"0.0-14.0-2.1"},{"rt":29408,"response":1,"all_choices":["../static/human_exp_images/task_color_contact/02_3.png","../static/human_exp_images/task_color_contact/02_0.png","../static/human_exp_images/task_color_contact/02_1.png","../static/human_exp_images/task_color_contact/02_2.png"],"task":"response","correct_response":0,"shuffled_array":[3,0,1,2],"trial_type":"image-click","trial_index":60,"time_elapsed":709112,"internal_node_id":"0.0-14.0-0.2","mouse_tracking_data":[{"x":876,"y":568,"t":28333,"event":"mousemove"},{"x":886,"y":561,"t":28340,"event":"mousemove"},{"x":895,"y":556,"t":28341,"event":"mousemove"},{"x":916,"y":534,"t":28351,"event":"mousemove"},{"x":930,"y":522,"t":28352,"event":"mousemove"},{"x":954,"y":496,"t":28359,"event":"mousemove"},{"x":969,"y":481,"t":28363,"event":"mousemove"},{"x":992,"y":458,"t":28368,"event":"mousemove"},{"x":1003,"y":444,"t":28373,"event":"mousemove"},{"x":1021,"y":425,"t":28377,"event":"mousemove"},{"x":1034,"y":413,"t":28378,"event":"mousemove"},{"x":1051,"y":387,"t":28394,"event":"mousemove"},{"x":1061,"y":364,"t":28411,"event":"mousemove"},{"x":1061,"y":349,"t":28427,"event":"mousemove"},{"x":1061,"y":337,"t":28444,"event":"mousemove"},{"x":1061,"y":326,"t":28460,"event":"mousemove"},{"x":1061,"y":318,"t":28478,"event":"mousemove"},{"x":1061,"y":314,"t":28495,"event":"mousemove"},{"x":1061,"y":304,"t":28510,"event":"mousemove"},{"x":1062,"y":294,"t":28528,"event":"mousemove"},{"x":1062,"y":287,"t":28544,"event":"mousemove"},{"x":1062,"y":276,"t":28561,"event":"mousemove"},{"x":1064,"y":271,"t":28577,"event":"mousemove"},{"x":1064,"y":265,"t":28594,"event":"mousemove"},{"x":1064,"y":259,"t":28610,"event":"mousemove"},{"x":1066,"y":252,"t":28628,"event":"mousemove"},{"x":1067,"y":241,"t":28644,"event":"mousemove"},{"x":1071,"y":233,"t":28661,"event":"mousemove"},{"x":1072,"y":226,"t":28677,"event":"mousemove"},{"x":1072,"y":217,"t":28695,"event":"mousemove"},{"x":1072,"y":212,"t":28712,"event":"mousemove"},{"x":1072,"y":210,"t":28728,"event":"mousemove"},{"x":1072,"y":208,"t":28745,"event":"mousemove"},{"x":1072,"y":206,"t":28761,"event":"mousemove"},{"x":1072,"y":204,"t":28779,"event":"mousemove"}],"mouse_tracking_targets":{},"correct":false},{"rt":2180,"stimulus":"<p>How confident are you about your choice ?</p>","slider_start":50,"response":78,"trial_type":"html-slider-response","trial_index":61,"time_elapsed":711293,"internal_node_id":"0.0-14.0-1.2"},{"rt":null,"stimulus":"\n        <div id='jspsych-image' style='position: relative; width: min(80vw, 80vh); height: min(80vw, 80vh);'>\n                \n                <div style='position: absolute; top: 40%; left: 30%; bottom: 40%; right: 30%;'><h1 style='font-size: 60px; color: red'>Wrong</h1></div>\n                \n                <div class='jspsych-image' id='jspsych-image-0' data-choice='0' style='top: 0;     left: 0;'><img style=\"max-width: 100%; max-height: 100%;\" src='../static/human_exp_images/task_color_contact/02_3.png' class='correct-choice'></img></div>\n                <div class='jspsych-image' id='jspsych-image-1' data-choice='1' style='top: 0;     right: 0;'><img style=\"max-width: 100%; max-height: 100%;\" src='../static/human_exp_images/task_color_contact/02_0.png' class='wrong-choice'></img></div>\n                <div class='jspsych-image' id='jspsych-image-2' data-choice='2' style='bottom: 0;  left: 0;'><img style=\"max-width: 100%; max-height: 100%;\" src='../static/human_exp_images/task_color_contact/02_1.png' class=''></img></div>\n                <div class='jspsych-image' id='jspsych-image-3' data-choice='3' style='bottom: 0;  right: 0;'><img style=\"max-width: 100%; max-height: 100%;\" src='../static/human_exp_images/task_color_contact/02_2.png' class=''></img></div>\n\n        </div>","response":null,"trial_type":"html-keyboard-response","trial_index":62,"time_elapsed":713797,"internal_node_id":"0.0-14.0-2.2"},{"rt":3657,"stimulus":"<p>You responded correctly on 89% of the trials.</p>\n    <p>Your average response time was 35444ms.</p>\n    <p>Press any key to complete the experiment. Thank you!</p>","response":" ","trial_type":"html-keyboard-response","trial_index":63,"time_elapsed":717455,"internal_node_id":"0.0-15.0","interactions":"[{\"event\":\"blur\",\"trial\":50,\"time\":623209},{\"event\":\"focus\",\"trial\":50,\"time\":645298}]"}]